basic_std,table,column,label,order,type,length,displayformat,xmldatatype,xmlcodelist,xmlcodelist_multi,core,origin,origintype,originsource,role,term,algorithm,qualifiers,isnotcdiscstd,comment,IGcomment,class_table,class_column,map_var_flag,fixed_mapping,include_in_raw,nn_internal,value_lvl_where_cols,value_lvl_label_col,value_lvl_collect_ct_val,value_lvl_ct_cdlist_id_col,enrich_build_order,enrich_rule,xmlcodelistvalues
Y,AE,STUDYID,Study Identifier,10,C,40,,text,,,Req,Protocol,Protocol,Sponsor,Identifier,,,UPPERCASE,,,Unique identifier for a study.,IDENTIFIERS,STUDYID,*,,Y,,,,,,,,
Y,AE,DOMAIN,Domain Abbreviation,20,C,8,,text,DOMAIN,,Req,Assigned,Assigned,Sponsor,Identifier,AE,,UPPERCASE,,,Two-character abbreviation for the domain.,IDENTIFIERS,DOMAIN,*,,Y,,,,,,60,sdtme_ae_teae_v$$,
Y,AE,USUBJID,Unique Subject Identifier,30,C,60,,text,,,Req,Assigned,Assigned,Sponsor,Identifier,,,UPPERCASE,,Concatenation of STUDYID and DM.SUBJID,Identifier used to uniquely identify a subject across all studies for all applications or submissions involving the product.,IDENTIFIERS,USUBJID,*,,Y,,,,,,,,
,AE,SPDEVID,Sponsor Device Identifier,40,C,80,,text,,,Perm,Assigned,Assigned,Sponsor,Identifier,,,UPPERCASE,,,Sponsor-defined identifier for a device,IDENTIFIERS,SPDEVID,Y,,Y,,,,,,,,
Y,AE,AESEQ,Sequence Number,50,N,8,,integer,,,Req,Assigned,Assigned,Sponsor,Identifier,,Sequential number identifying records within each USUBJID,,,,Sequence Number given to ensure uniqueness of subject records within a domain. May be any valid number.,IDENTIFIERS,__SEQ,*,,Y,,,,,,,,
Y,AE,AEGRPID,Group ID,60,C,60,,text,,,Perm,Assigned,Assigned,Sponsor,Identifier,,,UPPERCASE,,,Used to tie together a block of related records in a single domain for a subject.,IDENTIFIERS,__GRPID,Y,,Y,,,,,,,,
Y,AE,AEREFID,Reference ID,70,C,80,,text,,,Perm,CRF,Collected,,Identifier,,,UPPERCASE,,,Internal or external identifier such as a serial number on an SAE reporting form.,IDENTIFIERS,__REFID,Y,,Y,,,,,,,,
Y,AE,AESPID,Sponsor-Defined Identifier,80,C,40,,text,,,Perm,Assigned,Assigned,Sponsor,Identifier,,,UPPERCASE,,,Sponsor-defined identifier. It may be pre-printed on the CRF as an explicit line identifier or defined in the sponsor's operational database. Example: Line number on an Adverse Events page.,IDENTIFIERS,__SPID,*,,Y,,,,,,,,
,AE,AELNKID,Link ID,90,C,60,,text,,,Perm,Assigned,Assigned,Sponsor,Identifier,,,UPPERCASE,,,Identifier used to link related records across domains. This may be a one-to- one or a one-to-many relationship. For Example: A single tumor may have multiple measurements/assessments performed at each study visit.,IDENTIFIERS,__LNKID,Y,,Y,,,,,,,,
,AE,AELNKGRP,Link Group ID,100,C,60,,text,,,Perm,Assigned,Assigned,Sponsor,Identifier,,,UPPERCASE,,,Identifier used to link related records across domains. This will usually be a many-to-one relationship. For example: Multiple tumor measurements/assessments will contribute to a single response to therapy determination record.,IDENTIFIERS,__LNKGRP,Y,,Y,,,,,,,,
Y,AE,AETERM,Reported Term for the Adverse Event,110,C,200,,text,,,Req,CRF,Collected,Investigator,Topic,,,UPPERCASE,,,Verbatim name of the event.,EVENTS,__TERM,Y,,Y,,,,,,,,
Y,AE,AEMODIFY,Modified Reported Term,120,C,200,,text,,,Perm,CRF,Collected,Investigator,Synonym Qualifier,,,UPPERCASE,,,"If AETERM is modified to facilitate coding, then AEMODIFY will contain the modified text.",EVENTS,__MODIFY,Y,,Y,,,,,,,,
Y,AE,AELLT,Lowest Level Term,130,C,200,,text,,,Exp,Assigned,Assigned,Sponsor,Variable Qualifier,MedDRA,,MIXEDCASE,,,Dictionary-derived text description of the Lowest Level Term.,EVENTS,__LLT,,,,,,,,,30,sdtme_std_cd_v$$,
Y,AE,AELLTCD,Lowest Level Term Code,140,N,8,,integer,,,Exp,Assigned,Assigned,Sponsor,Variable Qualifier,MedDRA,,,,,Dictionary-derived code for the Lowest Level Term.,EVENTS,__LLTCD,Y,,Y,,,,,,,,
Y,AE,AEDECOD,Dictionary-Derived Term,150,C,200,,text,,,Req,Assigned,Assigned,Sponsor,Synonym Qualifier,MedDRA,,MIXEDCASE,,,Dictionary-derived text description of AETERM or AEMODIFY. Equivalent to the Preferred Term (PT in MedDRA). The sponsor is expected to provide the dictionary name and version used to map the terms utilizing the define.xml external codelist attributes.,EVENTS,__DECOD,,,,,,,,,30,sdtme_std_cd_v$$,
Y,AE,AEPTCD,Preferred Term Code,160,N,8,,integer,,,Exp,Assigned,Assigned,Sponsor,Variable Qualifier,MedDRA,,,,,Dictionary-derived code for the Preferred Term.,EVENTS,__PTCD,,,,,,,,,30,sdtme_std_cd_v$$,
Y,AE,AEHLT,High Level Term,170,C,200,,text,,,Exp,Assigned,Assigned,Sponsor,Variable Qualifier,MedDRA,,MIXEDCASE,,,Dictionary-derived text description of the High Level Term for the primary System Organ Class.,EVENTS,__HLT,,,,,,,,,30,sdtme_std_cd_v$$,
Y,AE,AEHLTCD,High Level Term Code,180,N,8,,integer,,,Exp,Assigned,Assigned,Sponsor,Variable Qualifier,MedDRA,,,,,Dictionary-derived code for the High Level Term for the primary System Organ Class.,EVENTS,__HLTCD,,,,,,,,,30,sdtme_std_cd_v$$,
Y,AE,AEHLGT,High Level Group Term,190,C,200,,text,,,Exp,Assigned,Assigned,Sponsor,Variable Qualifier,MedDRA,,MIXEDCASE,,,Dictionary-derived text description of the High Level Group Term for the primary System Organ Class.,EVENTS,__HLGT,,,,,,,,,30,sdtme_std_cd_v$$,
Y,AE,AEHLGTCD,High Level Group Term Code,200,N,8,,integer,,,Exp,Assigned,Assigned,Sponsor,Variable Qualifier,MedDRA,,,,,Dictionary-derived code for the High Level Group Term for the primary System Organ Class.,EVENTS,__HLGTCD,,,,,,,,,30,sdtme_std_cd_v$$,
Y,AE,AECAT,Category for Adverse Event,210,C,60,,text,,,Perm,Assigned,Assigned,Sponsor,Grouping Qualifier,*,,UPPERCASE,,,"Used to define a category of related records. Example: BLEEDING, NEUROPSYCHIATRIC.",EVENTS,__CAT,Y,,Y,,,,,,,,
Y,AE,AESCAT,Subcategory for Adverse Event,220,C,60,,text,,,Perm,Assigned,Assigned,Sponsor,Grouping Qualifier,*,,UPPERCASE,,,A further categorization of adverse event. Example: NEUROLOGIC.,EVENTS,__SCAT,Y,,Y,,,,,,,,
Y,AE,AEPRESP,Pre-Specified Adverse Event,230,C,2,,text,NY,,Perm,Assigned,Assigned,Sponsor,Variable Qualifier,(NY),,UPPERCASE,,,"A value of ""Y"" indicates that this adverse event was pre-specified on the CRF. Values are null for spontaneously reported events (i.e., those collected as free- text verbatim terms)",EVENTS,__PRESP,Y,,Y,,,,,,,,Y
Y,AE,AEBODSYS,Body System or Organ Class,240,C,200,,text,,,Exp,Assigned,Assigned,Sponsor,Record Qualifier,MedDRA,,MIXEDCASE,,,"Dictionary derived. Body system or organ class used by the sponsor from the coding dictionary (e.g., MedDRA). When using a multi-axial dictionary such as MedDRA, this should contain the SOC used for the sponsor's analyses and summary tables which may not necessarily be the primary SOC.",EVENTS,__BODSYS,,,,,,,,,30,sdtme_std_cd_v$$,
Y,AE,AEBDSYCD,Body System or Organ Class Code,250,N,8,,integer,,,Exp,Assigned,Assigned,Sponsor,Variable Qualifier,MedDRA,,,,,"Dictionary derived. Code for the body system or organ class used by the sponsor. When using a multi-axial dictionary such as MedDRA, this should contain the SOC used for the sponsor's analyses and summary tables, which may not necessarily be the primary SOC.",EVENTS,__BDSYCD,,,,,,,,,30,sdtme_std_cd_v$$,
Y,AE,AESOC,Primary System Organ Class,260,C,200,,text,,,Exp,Assigned,Assigned,Sponsor,Variable Qualifier,MedDRA,,MIXEDCASE,,,Dictionary-derived text description of the primary System Organ Class. Will be the same as AEBODSYS if the primary SOC was used for analysis.,EVENTS,__SOC,,,,,,,,,30,sdtme_std_cd_v$$,
Y,AE,AESOCCD,Primary System Organ Class Code,270,N,8,,integer,,,Exp,Assigned,Assigned,Sponsor,Variable Qualifier,MedDRA,,,,,Dictionary-derived code for the primary System Organ Class. Will be the same as AEBDSYCD if the primary SOC was used for analysis.,EVENTS,__SOCCD,,,,,,,,,30,sdtme_std_cd_v$$,
Y,AE,AELOC,Location of Event,280,C,100,,text,LOC,,Perm,,,,Record Qualifier,(LOC),,UPPERCASE,,,"Describes anatomical location relevant for the event (e.g., ARM for skin rash).",EVENTS,__LOC,Y,,Y,,,,,,,,
Y,AE,AESEV,Severity/Intensity,290,C,80,,text,AESEV,,Perm,,,,Record Qualifier,(AESEV),,UPPERCASE,,,"The severity or intensity of the event. Examples: MILD, MODERATE, SEVERE.",EVENTS,__SEV,Y,,Y,,,,,,,,
Y,AE,AESER,Serious Event,300,C,2,,text,NY,,Exp,,,,Record Qualifier,(NY),,UPPERCASE,,,Is this a serious event?,EVENTS,__SER,Y,,Y,,,,,,,,
Y,AE,AEACN,Action Taken with Study Treatment,310,C,40,,text,ACN,,Exp,,,,Record Qualifier,(ACN),,UPPERCASE,,,"Describes changes to the study treatment as a result of the event. AEACN is specifically for the relationship to study treatment. AEACNOTH is for actions unrelated to dose adjustments of study treatment. Examples of AEACN values include ICH E2B values: DRUG WITHDRAWN, DOSE REDUCED, DOSE INCREASED, DOSE NOT CHANGED, UNKNOWN or NOT APPLICABLE.",EVENTS,__ACN,,,,,AEACN,,,,70,sdtme_std_qnam_v$$,
Y,AE,AEACNOTH,Other Action Taken,320,C,200,,text,,,Perm,,,,Record Qualifier,,,UPPERCASE,,,"Describes other actions taken as a result of the event that are unrelated to dose adjustments of study treatment. Usually reported as free text. Example: ""TREATMENT UNBLINDED. PRIMARY CARE PHYSICIAN NOTIFIED.""",EVENTS,__ACNOTH,Y,,Y,,,,,,,,
,AE,AEACNDEV,Action Taken with Device,330,C,80,,text,AEACNDEV,,Perm,,,,Record Qualifier,*,,UPPERCASE,,,"Action taken with respect to a device in a study, which may or may not be the device under study",EVENTS,__ACNDEV,,,,,,,,,,,
Y,AE,AEREL,Causality,340,C,80,,text,AEREL,,Exp,,,,Record Qualifier,*,,UPPERCASE,,,"Records the investigator's opinion as to the causality of the event to the treatment. ICH E2A and E2B examples include NOT RELATED, UNLIKELY RELATED, POSSIBLY RELATED, RELATED. Controlled Terminology may be defined in the future. Check with regulatory authority for population of this variable.",EVENTS,__REL,,,,,AEREL,,,,70,sdtme_std_qnam_v$$,
Y,AE,AERELNST,Relationship to Non-Study Treatment,350,C,40,,text,,,Perm,,,,Record Qualifier,,,UPPERCASE,,,"Records the investigator's opinion as to whether the event may have been due to a treatment other than study drug. May be reported as free text. Example: ""MORE LIKELY RELATED TO ASPIRIN USE."".",EVENTS,__RELNST,,,,,,,,,,,
Y,AE,AEPATT,Pattern of Adverse Event,360,C,80,,text,,,Perm,,,,Record Qualifier,*,,UPPERCASE,,,"Used to indicate the pattern of the event over time. Examples: INTERMITTENT, CONTINUOUS, SINGLE EVENT.",EVENTS,__PATT,,,,,,,,,,,
Y,AE,AEOUT,Outcome of Adverse Event,370,C,40,,text,OUT,,Perm,,,,Record Qualifier,(OUT),,UPPERCASE,,,Description of the outcome of an event.,EVENTS,__OUT,Y,,Y,,,,,,,,
Y,AE,AESCAN,Involves Cancer,380,C,2,,text,NY,,Perm,,,,Record Qualifier,(NY),,UPPERCASE,,,Was the serious event associated with the development of cancer?,EVENTS,__SCAN,,,,,,,,,,,
Y,AE,AESCONG,Congenital Anomaly or Birth Defect,390,C,2,,text,NY,,Perm,,,,Record Qualifier,(NY),,UPPERCASE,,,Was the serious event associated with congenital anomaly or birth defect?,EVENTS,__SCONG,Y,,Y,,,,,,,,
Y,AE,AESDISAB,Persist or Signif Disability/Incapacity,400,C,2,,text,NY,,Perm,,,,Record Qualifier,(NY),,UPPERCASE,,,Did the serious event result in persistent or significant disability/incapacity?,EVENTS,__SDISAB,Y,,Y,,,,,,,,
Y,AE,AESDTH,Results in Death,410,C,2,,text,NY,,Perm,Derived,Derived,Sponsor,Record Qualifier,(NY),If AE record exists with AEOUT=FATAL then AESDTH=Y,UPPERCASE,,,Did the serious event result in death?,EVENTS,__SDTH,Y,,Y,,,,,,,,
Y,AE,AESHOSP,Requires or Prolongs Hospitalization,420,C,2,,text,NY,,Perm,,,,Record Qualifier,(NY),,UPPERCASE,,,Did the serious event require or prolong hospitalization?,EVENTS,__SHOSP,Y,,Y,,,,,,,,
Y,AE,AESLIFE,Is Life Threatening,430,C,2,,text,NY,,Perm,,,,Record Qualifier,(NY),,UPPERCASE,,,Was the serious event life threatening?,EVENTS,__SLIFE,Y,,Y,,,,,,,,
Y,AE,AESOD,Occurred with Overdose,440,C,2,,text,NY,,Perm,,,,Record Qualifier,(NY),,UPPERCASE,,,Did the serious event occur with an overdose?,EVENTS,__SOD,,,,,,,,,,,
Y,AE,AESMIE,Other Medically Important Serious Event,450,C,2,,text,NY,,Perm,,,,Record Qualifier,(NY),,UPPERCASE,,,Do additional categories for seriousness apply?,EVENTS,__SMIE,Y,,Y,,,,,,,,
Y,AE,AECONTRT,Concomitant or Additional Trtmnt Given,460,C,2,,text,NY,,Perm,,,,Record Qualifier,(NY),,UPPERCASE,,,Was another treatment given because of the occurrence of the event?,EVENTS,__CONTRT,,,,,,,,,,,
,AE,AETOX,Toxicity,470,C,80,,text,,,Perm,,,,Variable Qualifier,*,,UPPERCASE,,,,EVENTS,__TOX,Y,,Y,,,,,,,,
Y,AE,AETOXGR,Standard Toxicity Grade,480,C,80,,text,,,Perm,,,,Record Qualifier,*,,UPPERCASE,,,"Toxicity grade according to a standard toxicity scale such as Common Terminology Criteria for Adverse Events v3.0 (CTCAE). Sponsor should specify name of the scale and version used in the metadata (see Assumption 6d). If value is from a numeric scale, represent only the number (e.g., ""2"" and not ""Grade 2"").",EVENTS,__TOXGR,Y,,Y,,,,,,,,
,AE,AEEPRELI,Epi/Pandemic Related Indicator,490,C,2,,text,NY,,Perm,,,,Record Qualifier,(NY),,UPPERCASE,Yes,,Non-standard Variable from Guidance for Ongoing Studies Disrupted by COVID-19 Pandemic Version 1.0,NSV,__EPRELI,Y,,Y,,,,,,80,sdtme_std_epreli_v$$,Y
,AE,ETCD,Element Code,500,C,8,,text,,,Req,Assigned,Assigned,Sponsor,Record Qualifier,*,,UPPERCASE,,Set based on the SE domain,"ETCD (the companion to ELEMENT) is limited to 8 characters and does not have special character restrictions. These values should be short for ease of use in programming, but it is not expected that ETCD will need to serve as a variable name.",NN DEFINED,ETCD,,,,,,,,,50,sdtme_std_etcd_v$$,
,AE,ELEMENT,Description of Element,510,C,40,,text,,,Req,Protocol,Protocol,Sponsor,Record Qualifier,*,,UPPERCASE,,Set based on the SE domain,The name of the Element.,NN DEFINED,ELEMENT,,,,,,,,,50,sdtme_std_etcd_v$$,
Y,AE,TAETORD,Planned Order of Element within Arm,520,N,8,,integer,,,Perm,Protocol,Protocol,Sponsor,Timing,,,,,,Number that gives the planned order of the Element within the Arm for the element in which the assessment was made,TIMING,TAETORD,,,,,,,,,,,
Y,AE,EPOCH,Epoch,530,C,40,,text,EPOCH,,Perm,Protocol,Protocol,Sponsor,Timing,(EPOCH),,UPPERCASE,,Set based on the SE domain,"Epoch associated with the start date/time of the observation, or the date/time of collection if start date/time is not collected. (See Section 3.2.2).",TIMING,EPOCH,,,,,,,,,40,sdtme_std_epoch_v$$,
Y,AE,AESTDTC,Start Date/Time of Adverse Event,540,C,64,,datetime,,,Exp,,Collected,,Timing,ISO 8601,,UPPERCASE DATETIME,,,,TIMING,__STDTC,Y,,Y,,,,,,,,
Y,AE,AEENDTC,End Date/Time of Adverse Event,550,C,64,,datetime,,,Exp,,Collected,,Timing,ISO 8601,,UPPERCASE DATETIME,,,,TIMING,__ENDTC,Y,,Y,,,,,,,,
Y,AE,AESTDY,Study Day of Start of Adverse Event,560,N,8,,integer,,,Perm,Derived,Derived,Sponsor,Timing,,If AESTDTC GE RFSTDTC then AESTDY=AESTDTC-RFSTDTC+1; otherwise AESTDY=AESTDTC-RFSTDTC.,,,,Study day of start of adverse event relative to the sponsor-defined RFSTDTC.,TIMING,__STDY,,,,,,,,,10,sdtme_std_dy_v$$,
Y,AE,AEENDY,Study Day of End of Adverse Event,570,N,8,,integer,,,Perm,Derived,Derived,Sponsor,Timing,,If AEENDTC GE RFSTDTC then AEENDY=AEENDTC-RFSTDTC+1; otherwise AEENDY=AEENDTC-RFSTDTC.,,,,Study day of end of event relative to the sponsor-defined RFSTDTC.,TIMING,__ENDY,,,,,,,,,10,sdtme_std_dy_v$$,
Y,AE,AEDUR,Duration of Adverse Event,580,C,64,,durationDatetime,,,Perm,,,,Timing,ISO 8601,,UPPERCASE DURATION,,,"Collected duration and unit of an adverse event. Used only if collected on the CRF and not derived from start and end date/times. Example: P1DT2H (for 1 day, 2 hours).",TIMING,__DUR,Y,,Y,,,,,,,,
Y,AE,AEENRF,End Relative to Reference Period,590,C,20,,text,STENRF,,Perm,Derived,Derived,Sponsor,Timing,(STENRF),"Classifies the end of the medication relative to reference period as defined by RFSTDTC and RFENDTC in Demographics. If reported as ongoing on the CRF, the value will be set to ONGOING.",UPPERCASE,,,Describes the end of the event relative to the sponsor-defined reference period. The sponsor-defined reference period is a continuous period of time defined by a discrete starting point (RFSTDTC) and a discrete ending point (RFENDTC) of the trial. This variable is proposed for deletion post SDTM V1.4.,TIMING,__ENRF,Y,,Y,,,,,,,,
,AE,AESTRTPT,Start Relative to Reference Time Point,600,C,40,,text,STENRF,,Perm,Assigned,Assigned,Sponsor,Timing,(STENRF),,UPPERCASE,,,,TIMING,__STRTPT,Y,,Y,,,,,,,,BEFORE|COINCIDENT|AFTER|U
,AE,AESTTPT,Start Reference Time Point,610,C,40,,text,,,Perm,Assigned,Assigned,Sponsor,Timing,,,UPPERCASE,,,,TIMING,__STTPT,Y,,Y,,,,,,,,
Y,AE,AEENRTPT,End Relative to Reference Time Point,620,C,40,,text,STENRF,,Perm,Assigned,Assigned,Sponsor,Timing,(STENRF),,UPPERCASE,,,Identifies the end of the event as being before or after the reference time point defined by variable AEENTPT.,TIMING,__ENRTPT,Y,,Y,,,,,,,,BEFORE|COINCIDENT|AFTER|ONGOING|U
Y,AE,AEENTPT,End Reference Time Point,630,C,40,,text,,,Perm,Assigned,Assigned,Sponsor,Timing,,,UPPERCASE,,,"Description of date/time in ISO 8601 character format of the reference point referred to by AEENRTPT. Examples: ""2003-12-25"" or ""VISIT 2"".",TIMING,__ENTPT,Y,,Y,,,,,,,,
,AG,CDMS_SUB_EVT_NUM,CDMS Repeat Sequence Number,10,N,8,,integer,,,Perm,,,,Record Qualifier,,,,,,,NN DEFINED,CDMS_SUB_EVT_NUM,,subevnum,Y,Y,,,,,,,
,AG,TOPIC_CD,CDW Topic Code,20,C,80,,text,,,Perm,,,,Topic,,,,,,,NN DEFINED,TOPIC_CD,,topiccd,Y,Y,,,,,,,
Y,AG,STUDYID,Study Identifier,30,C,40,,text,,,Req,Protocol,Protocol,Sponsor,Identifier,,,UPPERCASE,,,,IDENTIFIERS,STUDYID,*,,Y,,,,,,,,
Y,AG,DOMAIN,Domain Abbreviation,40,C,8,,text,DOMAIN,,Req,Assigned,Assigned,Sponsor,Identifier,AG,,UPPERCASE,,,,IDENTIFIERS,DOMAIN,*,,Y,,,,,,,,
Y,AG,USUBJID,Unique Subject Identifier,50,C,60,,text,,,Req,Assigned,Assigned,Sponsor,Identifier,,,UPPERCASE,,Concatenation of STUDYID and DM.SUBJID,,IDENTIFIERS,USUBJID,*,,Y,,,,,,,,
,AG,SPDEVID,Sponsor Device Identifier,60,C,80,,text,,,Perm,Assigned,Assigned,Sponsor,Identifier,,,UPPERCASE,,,Sponsor-defined identifier for a device,IDENTIFIERS,SPDEVID,Y,,Y,,,,,,,,
Y,AG,AGSEQ,Sequence Number,70,N,8,,integer,,,Req,Assigned,Assigned,Sponsor,Identifier,,Sequential number identifying records within each USUBJID,,,,,IDENTIFIERS,__SEQ,*,,Y,,,,,,,,
Y,AG,AGGRPID,Group ID,80,C,60,,text,,,Perm,Assigned,Assigned,Sponsor,Identifier,,,UPPERCASE,,,,IDENTIFIERS,__GRPID,Y,,Y,,,,,,,,
,AG,AGREFID,Reference ID,90,C,80,,text,,,Perm,,Collected,,Identifier,,,UPPERCASE,,,"Optional internal or external identifier such as lab specimen ID, or UUID for an ECG waveform or a medical image.",IDENTIFIERS,__REFID,Y,,Y,,,,,,,,
Y,AG,AGSPID,Sponsor-Defined Identifier,100,C,40,,text,,,Perm,Assigned,Assigned,Sponsor,Identifier,,,UPPERCASE,,"System generated unique identifier, can be used as reference to the ADaM domains",,IDENTIFIERS,__SPID,*,,Y,,,,,,,,
Y,AG,AGLNKID,Link ID,110,C,60,,text,,,Perm,Assigned,Assigned,Sponsor,Identifier,,,UPPERCASE,,,Identifier used to link related records across domains. This may be a one-to- one or a one-to-many relationship. For Example: A single tumor may have multiple measurements/assessments performed at each study visit.,IDENTIFIERS,__LNKID,Y,,Y,,,,,,,,
Y,AG,AGLNKGRP,Link Group ID,120,C,60,,text,,,Perm,Assigned,Assigned,Sponsor,Identifier,,,UPPERCASE,,,Identifier used to link related records across domains. This will usually be a many-to-one relationship. For example: Multiple tumor measurements/assessments will contribute to a single response to therapy determination record.,IDENTIFIERS,__LNKGRP,Y,,Y,,,,,,,,
Y,AG,AGTRT,Reported Agent Name,130,C,200,,text,,,Req,,Assigned,Sponsor,Topic,,,UPPERCASE,,,,INTERVENTIONS,__TRT,Y,,Y,,,,,,,,
Y,AG,AGMODIFY,Modified Reported Name,140,C,200,,text,,,Perm,,Collected,,Synonym Qualifier,,,UPPERCASE,,,,INTERVENTIONS,__MODIFY,Y,,Y,,,,,,,,
Y,AG,AGDECOD,Standardized Agent Name,150,C,200,,text,,,Perm,Assigned,Assigned,Sponsor,Synonym Qualifier,*,,MIXEDCASE,,,,INTERVENTIONS,__DECOD,Y,,Y,,,,,,,,
Y,AG,AGCAT,Category for Agent,160,C,60,,text,AGCAT,,Perm,Assigned,Assigned,Sponsor,Grouping Qualifier,*,,UPPERCASE,,,,INTERVENTIONS,__CAT,Y,,Y,,,,,,,,
Y,AG,AGSCAT,Subcategory for Agent,170,C,60,,text,,,Perm,Assigned,Assigned,Sponsor,Grouping Qualifier,*,,UPPERCASE,,,,INTERVENTIONS,__SCAT,Y,,Y,,,,,,,,
Y,AG,AGPRESP,AG Pre-Specified,180,C,2,,text,NY,,Perm,Assigned,Assigned,Sponsor,Variable Qualifier,(NY),,UPPERCASE,,,,INTERVENTIONS,__PRESP,Y,,Y,,,,,,,,Y
Y,AG,AGOCCUR,AG Occurrence,190,C,2,,text,NY,,Perm,,,,Record Qualifier,(NY),,UPPERCASE,,,,INTERVENTIONS,__OCCUR,Y,,Y,,,,,,,,Y|N
Y,AG,AGSTAT,Completion Status,200,C,40,,text,ND,,Perm,Derived,Derived,Sponsor,Record Qualifier,(ND),"Set to NOT DONE if 'ND', 'NA', 'NK' ,' ' have been reported on CRF",UPPERCASE,,"Set to NOT DONE if 'ND', 'NA', 'NK' ,' ' have been reported on CRF",,INTERVENTIONS,__STAT,Y,,Y,,,,,,,,
Y,AG,AGREASND,Reason Procedure Agent Not Collected,210,C,200,,text,,,Perm,,,,Record Qualifier,,,UPPERCASE,,,,INTERVENTIONS,__REASND,Y,,Y,,,,,,,,
Y,AG,AGCLAS,Agent Class,220,C,200,,text,,,Perm,Assigned,Assigned,Sponsor,Variable Qualifier,*,,UPPERCASE,,,,INTERVENTIONS,__CLAS,Y,,Y,,,,,,,,
Y,AG,AGCLASCD,Agent Class Code,230,C,40,,text,,,Perm,Assigned,Assigned,Sponsor,Variable Qualifier,*,,UPPERCASE,,,,INTERVENTIONS,__CLASCD,Y,,Y,,,,,,,,
Y,AG,AGDOSE,Dose per Administration,240,N,8,8.3,float,,,Perm,,,,Record Qualifier,,,,,,,INTERVENTIONS,__DOSE,Y,,Y,,,,,,,,
Y,AG,AGDOSTXT,Dose Description,250,C,200,,text,,,Perm,,,,Record Qualifier,,,UPPERCASE,,,,INTERVENTIONS,__DOSTXT,Y,,Y,,,,,,,,
Y,AG,AGDOSU,Dose Units,260,C,40,,text,UNIT,,Perm,,,,Variable Qualifier,(UNIT),,MIXEDCASE,,,,INTERVENTIONS,__DOSU,,unitcoll,Y,,,,,,,,
Y,AG,AGDOSFRM,Dose Form,270,C,80,,text,FRM,,Perm,,,,Variable Qualifier,(FRM),,UPPERCASE,,,,INTERVENTIONS,__DOSFRM,Y,,Y,,,,,,,,
Y,AG,AGDOSFRQ,Dosing Frequency per Interval,280,C,40,,text,FREQ,,Perm,,,,Variable Qualifier,(FREQ),,UPPERCASE,,,,INTERVENTIONS,__DOSFRQ,Y,,Y,,,,,,,,
Y,AG,AGROUTE,Route of Administration,290,C,40,,text,ROUTE,,Perm,,,,Variable Qualifier,(ROUTE),,UPPERCASE,,,,INTERVENTIONS,__ROUTE,Y,,Y,,,,,,,,
,AG,ETCD,Element Code,300,C,8,,text,,,Req,Assigned,Assigned,Sponsor,Record Qualifier,*,,UPPERCASE,,Set based on the SE domain,"ETCD (the companion to ELEMENT) is limited to 8 characters and does not have special character restrictions. These values should be short for ease of use in programming, but it is not expected that ETCD will need to serve as a variable name.",NN DEFINED,ETCD,,,,,,,,,50,sdtme_std_etcd_v$$,
,AG,ELEMENT,Description of Element,310,C,40,,text,,,Req,Protocol,Protocol,Sponsor,Record Qualifier,*,,UPPERCASE,,Set based on the SE domain,The name of the Element.,NN DEFINED,ELEMENT,,,,,,,,,50,sdtme_std_etcd_v$$,
Y,AG,VISITNUM,Visit Number,320,N,8,9.3,float,,,Exp,Protocol,Protocol,Sponsor,Timing,,,,,Multiple unscheduled visits or non-visits can exist having the same visit ID but with different dates. This might result in duplicate records for the same visit number but with different dates,,TIMING,VISITNUM,Y,,Y,,,,,,,,
Y,AG,VISIT,Visit Name,330,C,40,,text,,,Perm,Protocol,Protocol,Sponsor,Timing,,,UPPERCASE,,,,TIMING,VISIT,,,,,,,,,30,sdtme_std_visit_v$$,
Y,AG,VISITDY,Planned Study Day of Visit,340,N,8,,integer,,,Perm,Assigned,Assigned,Sponsor,Timing,,,,,Based on TV.VISITDY,,TIMING,VISITDY,,,,,,,,,20,sdtme_std_visitdy_v$$,
Y,AG,TAETORD,Planned Order of Element within Arm,350,N,8,,integer,,,Perm,Protocol,Protocol,Sponsor,Timing,,,,,,Number that gives the planned order of the Element within the Arm for the element in which the assessment was made,TIMING,TAETORD,,,,,,,,,,,
Y,AG,EPOCH,Epoch,360,C,40,,text,EPOCH,,Perm,Protocol,Protocol,Sponsor,Timing,(EPOCH),,UPPERCASE,,Set based on the SE domain,"Epoch associated with the start date/time of the observation, or the date/time of collection if start date/time is not collected. (See Section 3.2.2).",TIMING,EPOCH,,,,,,,,,40,sdtme_std_epoch_v$$,
Y,AG,AGSTDTC,Start Date/Time of Agent,370,C,64,,datetime,,,Perm,,Collected,,Timing,ISO 8601,,UPPERCASE DATETIME,,,,TIMING,__STDTC,Y,,Y,,,,,,,,
Y,AG,AGENDTC,End Date/Time of Agent,380,C,64,,datetime,,,Perm,,Collected,,Timing,ISO 8601,,UPPERCASE DATETIME,,,,TIMING,__ENDTC,Y,,Y,,,,,,,,
Y,AG,AGSTDY,Study Day of Start of Agent,390,N,8,,integer,,,Perm,Derived,Derived,Sponsor,Timing,,If AGSTDTC GE RFSTDTC then AGSTDY=AGSTDTC-RFSTDTC+1; otherwise AGSTDY=AGSTDTC-RFSTDTC.,,,,,TIMING,__STDY,,,,,,,,,10,sdtme_std_dy_v$$,
Y,AG,AGENDY,Study Day of End of Agent,400,N,8,,integer,,,Perm,Derived,Derived,Sponsor,Timing,,If AGENDTC GE RFSTDTC then AGENDY=AGENDTC-RFSTDTC+1; otherwise AGENDY=AGENDTC-RFSTDTC.,,,,,TIMING,__ENDY,,,,,,,,,10,sdtme_std_dy_v$$,
Y,AG,AGDUR,Duration of Agent,410,C,64,,durationDatetime,,,Perm,,,,Timing,ISO 8601,,UPPERCASE DURATION,,,,TIMING,__DUR,Y,,Y,,,,,,,,
,AG,AGTPT,Planned Time Point Name,420,C,80,,text,,,Perm,,,,Timing,,,UPPERCASE,,,"Text description of time when a measurement or observation should be taken as defined in the protocol. This may be represented as an elapsed time relative to a fixed reference point, such as time of last dose. See --TPTNUM and -- TPTREF.",TIMING,__TPT,Y,,Y,,,,,,110,sdtme_std_tpt_v$$,
,AG,AGTPTNUM,Planned Time Point Number,430,N,8,8.1,float,,,Perm,,,,Timing,,,,,,Numeric version of planned time point used in sorting.,TIMING,__TPTNUM,Y,,Y,,,,,,110,sdtme_std_tpt_v$$,
,AG,AGELTM,Planned Elapsed Time from Time Point Ref,440,C,64,,durationDatetime,,,Perm,,,,Timing,ISO 8601,,UPPERCASE DURATION,,,"Planned Elapsed time in ISO 8601 character format relative to a planned fixed reference (--TPTREF) such as ""Previous Dose"" or ""Previous Meal"". This variable is useful where there are repetitive measures. Not a clock time or a date/time variable, but an interval, represented as ISO duration.",TIMING,__ELTM,Y,,Y,,,,,,,,
,AG,AGTPTREF,Time Point Reference,450,C,80,,text,,,Perm,,,,Timing,,,UPPERCASE,,,"Description of the fixed reference point referred to by --ELTM, --TPTNUM, and --TPT. Examples: PREVIOUS DOSE, PREVIOUS MEAL.",TIMING,__TPTREF,Y,,Y,,,,,,110,sdtme_std_tpt_v$$,
,AG,AGRFTDTC,Date/Time of Reference Time Point,460,C,64,,datetime,,,Perm,,,,Timing,ISO 8601,,UPPERCASE DATETIME,,,Date/time for a fixed reference time point defined by --TPTREF in ISO 8601 character format.,TIMING,__RFTDTC,Y,,Y,,,,,,,,
Y,AG,AGSTRF,Start Relative to Reference Period,470,C,20,,text,STENRF,,Perm,Derived,Derived,Sponsor,Timing,(STENRF),Classifies the start of the medication relative to reference period as defined by RFSTDTC and RFENDTC in Demographics.,UPPERCASE,,,,TIMING,__STRF,Y,,Y,,,,,,,,
Y,AG,AGENRF,End Relative to Reference Period,480,C,20,,text,STENRF,,Perm,Derived,Derived,Sponsor,Timing,(STENRF),"Classifies the end of the medication relative to reference period as defined by RFSTDTC and RFENDTC in Demographics. If reported as ongoing on the CRF, the value will be set to ONGOING.",UPPERCASE,,,,TIMING,__ENRF,Y,,Y,,,,,,,,
Y,AG,AGSTRTPT,Start Relative to Reference Time Point,490,C,40,,text,STENRF,,Perm,,,,Timing,(STENRF),,UPPERCASE,,,,TIMING,__STRTPT,Y,,Y,,,,,,,,BEFORE|COINCIDENT|AFTER|U
Y,AG,AGSTTPT,Start Reference Time Point,500,C,40,,text,,,Perm,,,,Timing,,,UPPERCASE,,,,TIMING,__STTPT,Y,,Y,,,,,,,,
Y,AG,AGENRTPT,End Relative to Reference Time Point,510,C,40,,text,STENRF,,Perm,,,,Timing,(STENRF),,UPPERCASE,,,,TIMING,__ENRTPT,Y,,Y,,,,,,,,BEFORE|COINCIDENT|AFTER|ONGOING|U
Y,AG,AGENTPT,End Reference Time Point,520,C,40,,text,,,Perm,,,,Timing,,,UPPERCASE,,,,TIMING,__ENTPT,Y,,Y,,,,,,,,
Y,APAE,STUDYID,Study Identifier,10,C,40,,text,,,Req,Protocol,Protocol,Sponsor,Identifier,,,UPPERCASE,,,Unique identifier for a study.,IDENTIFIERS,STUDYID,*,,Y,,,,,,,,
Y,APAE,DOMAIN,Domain Abbreviation,20,C,8,,text,DOMAIN,,Req,Assigned,Assigned,Sponsor,Identifier,APAE,,UPPERCASE,,,"Four-character abbreviation for the domain, AP--.",IDENTIFIERS,DOMAIN,*,,Y,,,,,,,,
,APAE,USUBJID,Unique Subject Identifier,30,C,60,,text,,,Req,Assigned,Assigned,Sponsor,Identifier,,,UPPERCASE,,Concatenation of STUDYID and DM.SUBJID (This is a variable for internal system use),Identifier used to uniquely identify a subject across all studies for all applications or submissions involving the product.,IDENTIFIERS,USUBJID,*,,Y,Y,,,,,,,
Y,APAE,APID,Associated Persons Identifier,40,C,60,,text,,,Req,Assigned,Assigned,Sponsor,Identifier,,,UPPERCASE,,,"Identifier for a single associated person, a group of associated persons, or a pool of associated persons. If APID identifies a pool, POOLDEF records must exist for each associated person.",IDENTIFIERS,APID,Y,,Y,,,,,,,,
Y,APAE,AESEQ,Sequence Number,50,N,8,,integer,,,Req,Assigned,Assigned,Sponsor,Identifier,,,,,,Sequence number to ensure uniqueness of records within a domain for associated persons. Unique within APID within the domain.,IDENTIFIERS,__SEQ,*,,Y,,,,,,,,
Y,APAE,RSUBJID,Related Subject,60,C,60,,text,,,Exp,CRF,Collected,Investigator,Record Qualifier,,,UPPERCASE,,,Identifier for a related study subject or pool of study subjects. The subject(s) may be human or animal. RSUBJID will be populated with the USUBJID of the related subject or the POOLID of the related pool. RSUBJID will be null for data about associated persons who are related to the study but not to any of the study subjects.,IDENTIFIERS,RSUBJID,Y,,Y,,,,,,,,
Y,APAE,RDEVID,Related Device,70,C,40,,text,,,Perm,CRF,Collected,Investigator,Record Qualifier,,,UPPERCASE,,,Identifier for a related device. RDEVID will be populated with the SPDEVID of the related device.,IDENTIFIERS,RDEVID,Y,,Y,,,,,,,,
Y,APAE,SREL,"Subject, Device, or Study Relationship",80,C,40,,text,RELSUB,,Req,CRF,Collected,Investigator,Record Qualifier,(RELSUB),,UPPERCASE,,,"If RSUBJID is populated, describes the relationship of the associated person(s) identified in APID to the subject or pool identified in RSUBJID. If RDEVID is populated, describes the relationship of the associated person(s) identified in APID to the device identified in RDEVID. If RSUBJID and RDEVID are null, SREL describes the relationship of the associated person(s) identified in APID to the study identified in STUDYID.",IDENTIFIERS,SREL,Y,,Y,,,,,,,,
,APAE,AEGRPID,Group ID,90,C,60,,text,,,Perm,Assigned,Assigned,Sponsor,Identifier,,,UPPERCASE,,,Used to tie together a block of related records in a single domain for a subject.,IDENTIFIERS,__GRPID,Y,,Y,,,,,,,,
,APAE,AEREFID,Reference ID,100,C,80,,text,,,Perm,,Collected,,Identifier,,,UPPERCASE,,,Internal or external identifier such as a serial number on an SAE reporting form.,IDENTIFIERS,__REFID,Y,,Y,,,,,,,,
,APAE,AESPID,Sponsor-Defined Identifier,110,C,40,,text,,,Perm,Assigned,Assigned,Sponsor,Identifier,,,UPPERCASE,,Sponsor-defined identifier. Example: pre-printed line identifier on a Concomitant Medications page.,Sponsor-defined identifier. Example: pre-printed line identifier on a Concomitant Medications page.,IDENTIFIERS,__SPID,*,,Y,,,,,,,,
,APAE,APAESPID,Sponsor-Defined Identifier,120,C,40,,text,,,Perm,Assigned,Assigned,Sponsor,Identifier,,,UPPERCASE,,"System generated unique identifier, required for Enriched SDTM generation.",,IDENTIFIERS,__SPID,*,,Y,Y,,,,,,,
,APAE,AELNKID,Link ID,130,C,60,,text,,,Perm,Assigned,Assigned,Sponsor,Identifier,,,UPPERCASE,,,Identifier used to link related records across domains. This may be a one-to- one or a one-to-many relationship. For Example: A single tumor may have multiple measurements/assessments performed at each study visit.,IDENTIFIERS,__LNKID,Y,,Y,,,,,,,,
,APAE,AELNKGRP,Link Group ID,140,C,60,,text,,,Perm,Assigned,Assigned,Sponsor,Identifier,,,UPPERCASE,,,Identifier used to link related records across domains. This will usually be a many-to-one relationship. For example: Multiple tumor measurements/assessments will contribute to a single response to therapy determination record.,IDENTIFIERS,__LNKGRP,Y,,Y,,,,,,,,
,APAE,AETERM,Reported Term for the Adverse Event,150,C,200,,text,,,Req,,Collected,,Topic,,,UPPERCASE,,,Verbatim name of the event.,EVENTS,__TERM,Y,,Y,,,,,,,,
,APAE,AEMODIFY,Modified Reported Term,160,C,200,,text,,,Perm,,Collected,,Synonym Qualifier,,,UPPERCASE,,,"If AETERM is modified to facilitate coding, then AEMODIFY will contain the modified text.",EVENTS,__MODIFY,Y,,Y,,,,,,,,
,APAE,AELLT,Lowest Level Term,170,C,200,,text,,,Exp,Assigned,Assigned,Sponsor,Variable Qualifier,MedDRA,,MIXEDCASE,,,Dictionary-derived text description of the Lowest Level Term.,EVENTS,__LLT,,,,,,,,,30,sdtme_std_cd_v$$,
,APAE,AELLTCD,Lowest Level Term Code,180,N,8,,integer,,,Exp,Assigned,Assigned,Sponsor,Variable Qualifier,MedDRA,,,,,Dictionary-derived code for the Lowest Level Term.,EVENTS,__LLTCD,Y,,Y,,,,,,,,
,APAE,AEDECOD,Dictionary-Derived Term,190,C,200,,text,,,Req,Assigned,Assigned,Sponsor,Synonym Qualifier,MedDRA,,MIXEDCASE,,,Dictionary-derived text description of AETERM or AEMODIFY. Equivalent to the Preferred Term (PT in MedDRA). The sponsor is expected to provide the dictionary name and version used to map the terms utilizing the define.xml external codelist attributes.,EVENTS,__DECOD,,,,,,,,,30,sdtme_std_cd_v$$,
,APAE,AEPTCD,Preferred Term Code,200,N,8,,integer,,,Exp,Assigned,Assigned,Sponsor,Variable Qualifier,MedDRA,,,,,Dictionary-derived code for the Preferred Term.,EVENTS,__PTCD,,,,,,,,,30,sdtme_std_cd_v$$,
,APAE,AEHLT,High Level Term,210,C,200,,text,,,Exp,Assigned,Assigned,Sponsor,Variable Qualifier,MedDRA,,MIXEDCASE,,,Dictionary-derived text description of the High Level Term for the primary System Organ Class.,EVENTS,__HLT,,,,,,,,,30,sdtme_std_cd_v$$,
,APAE,AEHLTCD,High Level Term Code,220,N,8,,integer,,,Exp,Assigned,Assigned,Sponsor,Variable Qualifier,MedDRA,,,,,Dictionary-derived code for the High Level Term for the primary System Organ Class.,EVENTS,__HLTCD,,,,,,,,,30,sdtme_std_cd_v$$,
,APAE,AEHLGT,High Level Group Term,230,C,200,,text,,,Exp,Assigned,Assigned,Sponsor,Variable Qualifier,MedDRA,,MIXEDCASE,,,Dictionary-derived text description of the High Level Group Term for the primary System Organ Class.,EVENTS,__HLGT,,,,,,,,,30,sdtme_std_cd_v$$,
,APAE,AEHLGTCD,High Level Group Term Code,240,N,8,,integer,,,Exp,Assigned,Assigned,Sponsor,Variable Qualifier,MedDRA,,,,,Dictionary-derived code for the High Level Group Term for the primary System Organ Class.,EVENTS,__HLGTCD,,,,,,,,,30,sdtme_std_cd_v$$,
,APAE,AECAT,Category for Adverse Event,250,C,60,,text,,,Perm,Assigned,Assigned,Sponsor,Grouping Qualifier,*,,UPPERCASE,,,"Used to define a category of related records. Example: BLEEDING, NEUROPSYCHIATRIC.",EVENTS,__CAT,Y,,Y,,,,,,,,
,APAE,AESCAT,Subcategory for Adverse Event,260,C,60,,text,,,Perm,Assigned,Assigned,Sponsor,Grouping Qualifier,*,,UPPERCASE,,,A further categorization of adverse event. Example: NEUROLOGIC.,EVENTS,__SCAT,Y,,Y,,,,,,,,
,APAE,AEPRESP,Pre-Specified Adverse Event,270,C,2,,text,NY,,Perm,Assigned,Assigned,Sponsor,Variable Qualifier,(NY),,UPPERCASE,,,"A value of ""Y"" indicates that this adverse event was pre-specified on the CRF. Values are null for spontaneously reported events (i.e., those collected as free- text verbatim terms)",EVENTS,__PRESP,Y,,Y,,,,,,,,Y
,APAE,AEBODSYS,Body System or Organ Class,280,C,200,,text,,,Exp,Assigned,Assigned,Sponsor,Record Qualifier,MedDRA,,MIXEDCASE,,,"Dictionary derived. Body system or organ class used by the sponsor from the coding dictionary (e.g., MedDRA). When using a multi-axial dictionary such as MedDRA, this should contain the SOC used for the sponsor's analyses and summary tables which may not necessarily be the primary SOC.",EVENTS,__BODSYS,,,,,,,,,30,sdtme_std_cd_v$$,
,APAE,AEBDSYCD,Body System or Organ Class Code,290,N,8,,integer,,,Exp,Assigned,Assigned,Sponsor,Variable Qualifier,MedDRA,,,,,"Dictionary derived. Code for the body system or organ class used by the sponsor. When using a multi-axial dictionary such as MedDRA, this should contain the SOC used for the sponsor's analyses and summary tables, which may not necessarily be the primary SOC.",EVENTS,__BDSYCD,,,,,,,,,30,sdtme_std_cd_v$$,
,APAE,AESOC,Primary System Organ Class,300,C,200,,text,,,Exp,Assigned,Assigned,Sponsor,Variable Qualifier,MedDRA,,MIXEDCASE,,,Dictionary-derived text description of the primary System Organ Class. Will be the same as AEBODSYS if the primary SOC was used for analysis.,EVENTS,__SOC,,,,,,,,,30,sdtme_std_cd_v$$,
,APAE,AESOCCD,Primary System Organ Class Code,310,N,8,,integer,,,Exp,Assigned,Assigned,Sponsor,Variable Qualifier,MedDRA,,,,,Dictionary-derived code for the primary System Organ Class. Will be the same as AEBDSYCD if the primary SOC was used for analysis.,EVENTS,__SOCCD,,,,,,,,,30,sdtme_std_cd_v$$,
,APAE,AELOC,Location of Event,320,C,100,,text,LOC,,Perm,,,,Record Qualifier,(LOC),,UPPERCASE,,,"Describes anatomical location relevant for the event (e.g., ARM for skin rash).",EVENTS,__LOC,Y,,Y,,,,,,,,
,APAE,AESEV,Severity/Intensity,330,C,80,,text,AESEV,,Perm,,,,Record Qualifier,(AESEV),,UPPERCASE,,,"The severity or intensity of the event. Examples: MILD, MODERATE, SEVERE.",EVENTS,__SEV,Y,,Y,,,,,,,,
,APAE,AESER,Serious Event,340,C,2,,text,NY,,Exp,,,,Record Qualifier,(NY),,UPPERCASE,,,Is this a serious event?,EVENTS,__SER,Y,,Y,,,,,,,,
,APAE,AEACN,Action Taken with Study Treatment,350,C,40,,text,ACN,,Exp,,,,Record Qualifier,(ACN),,UPPERCASE,,,"Describes changes to the study treatment as a result of the event. AEACN is specifically for the relationship to study treatment. AEACNOTH is for actions unrelated to dose adjustments of study treatment. Examples of AEACN values include ICH E2B values: DRUG WITHDRAWN, DOSE REDUCED, DOSE INCREASED, DOSE NOT CHANGED, UNKNOWN or NOT APPLICABLE.",EVENTS,__ACN,,,,,,,,,70,sdtme_std_qnam_v$$,
,APAE,AEACNOTH,Other Action Taken,360,C,200,,text,,,Perm,,,,Record Qualifier,,,UPPERCASE,,,"Describes other actions taken as a result of the event that are unrelated to dose adjustments of study treatment. Usually reported as free text. Example: ""TREATMENT UNBLINDED. PRIMARY CARE PHYSICIAN NOTIFIED.""",EVENTS,__ACNOTH,Y,,Y,,,,,,,,
,APAE,AEACNDEV,Action Taken with Device,370,C,80,,text,AEACNDEV,,Perm,,,,Record Qualifier,*,,UPPERCASE,,,"Action taken with respect to a device in a study, which may or may not be the device under study",EVENTS,__ACNDEV,,,,,,,,,,,
,APAE,AEREL,Causality,380,C,80,,text,AEREL,,Exp,,,,Record Qualifier,*,,UPPERCASE,,,"Records the investigator's opinion as to the causality of the event to the treatment. ICH E2A and E2B examples include NOT RELATED, UNLIKELY RELATED, POSSIBLY RELATED, RELATED. Controlled Terminology may be defined in the future. Check with regulatory authority for population of this variable.",EVENTS,__REL,,,,,,,,,70,sdtme_std_qnam_v$$,
,APAE,AERELNST,Relationship to Non-Study Treatment,390,C,40,,text,,,Perm,,,,Record Qualifier,,,UPPERCASE,,,"Records the investigator's opinion as to whether the event may have been due to a treatment other than study drug. May be reported as free text. Example: ""MORE LIKELY RELATED TO ASPIRIN USE."".",EVENTS,__RELNST,,,,,,,,,,,
,APAE,AEPATT,Pattern of Adverse Event,400,C,80,,text,,,Perm,,,,Record Qualifier,*,,UPPERCASE,,,"Used to indicate the pattern of the event over time. Examples: INTERMITTENT, CONTINUOUS, SINGLE EVENT.",EVENTS,__PATT,,,,,,,,,,,
,APAE,AEOUT,Outcome of Adverse Event,410,C,40,,text,OUT,,Perm,,,,Record Qualifier,(OUT),,UPPERCASE,,,Description of the outcome of an event.,EVENTS,__OUT,Y,,Y,,,,,,,,
,APAE,AESCAN,Involves Cancer,420,C,2,,text,NY,,Perm,,,,Record Qualifier,(NY),,UPPERCASE,,,Was the serious event associated with the development of cancer?,EVENTS,__SCAN,,,,,,,,,,,
,APAE,AESCONG,Congenital Anomaly or Birth Defect,430,C,2,,text,NY,,Perm,,,,Record Qualifier,(NY),,UPPERCASE,,,Was the serious event associated with congenital anomaly or birth defect?,EVENTS,__SCONG,Y,,Y,,,,,,,,
,APAE,AESDISAB,Persist or Signif Disability/Incapacity,440,C,2,,text,NY,,Perm,,,,Record Qualifier,(NY),,UPPERCASE,,,Did the serious event result in persistent or significant disability/incapacity?,EVENTS,__SDISAB,Y,,Y,,,,,,,,
,APAE,AESDTH,Results in Death,450,C,2,,text,NY,,Perm,Derived,Derived,Sponsor,Record Qualifier,(NY),If AE record exists with AEOUT=FATAL then AESDTH=Y,UPPERCASE,,,Did the serious event result in death?,EVENTS,__SDTH,Y,,Y,,,,,,,,
,APAE,AESHOSP,Requires or Prolongs Hospitalization,460,C,2,,text,NY,,Perm,,,,Record Qualifier,(NY),,UPPERCASE,,,Did the serious event require or prolong hospitalization?,EVENTS,__SHOSP,Y,,Y,,,,,,,,
,APAE,AESLIFE,Is Life Threatening,470,C,2,,text,NY,,Perm,,,,Record Qualifier,(NY),,UPPERCASE,,,Was the serious event life threatening?,EVENTS,__SLIFE,Y,,Y,,,,,,,,
,APAE,AESOD,Occurred with Overdose,480,C,2,,text,NY,,Perm,,,,Record Qualifier,(NY),,UPPERCASE,,,Did the serious event occur with an overdose?,EVENTS,__SOD,,,,,,,,,,,
,APAE,AESMIE,Other Medically Important Serious Event,490,C,2,,text,NY,,Perm,,,,Record Qualifier,(NY),,UPPERCASE,,,Do additional categories for seriousness apply?,EVENTS,__SMIE,Y,,Y,,,,,,,,
,APAE,AECONTRT,Concomitant or Additional Trtmnt Given,500,C,2,,text,NY,,Perm,,,,Record Qualifier,(NY),,UPPERCASE,,,Was another treatment given because of the occurrence of the event?,EVENTS,__CONTRT,,,,,,,,,,,
,APAE,AETOX,Toxicity,510,C,80,,text,,,Perm,,,,Variable Qualifier,*,,UPPERCASE,,,,EVENTS,__TOX,Y,,Y,,,,,,,,
,APAE,AETOXGR,Standard Toxicity Grade,520,C,80,,text,,,Perm,,,,Record Qualifier,*,,UPPERCASE,,,"Toxicity grade according to a standard toxicity scale such as Common Terminology Criteria for Adverse Events v3.0 (CTCAE). Sponsor should specify name of the scale and version used in the metadata (see Assumption 6d). If value is from a numeric scale, represent only the number (e.g., ""2"" and not ""Grade 2"").",EVENTS,__TOXGR,Y,,Y,,,,,,,,
,APAE,AEEPRELI,Epi/Pandemic Related Indicator,530,C,2,,text,NY,,Perm,,,,Record Qualifier,(NY),,UPPERCASE,Yes,,Non-standard Variable from Guidance for Ongoing Studies Disrupted by COVID-19 Pandemic Version 1.0,NSV,__EPRELI,Y,,Y,,,,,,80,sdtme_std_epreli_v$$,Y
,APAE,ETCD,Element Code,540,C,8,,text,,,Req,Assigned,Assigned,Sponsor,Record Qualifier,*,,UPPERCASE,,Set based on the SE domain,"ETCD (the companion to ELEMENT) is limited to 8 characters and does not have special character restrictions. These values should be short for ease of use in programming, but it is not expected that ETCD will need to serve as a variable name.",NN DEFINED,ETCD,,,,,,,,,50,sdtme_std_etcd_v$$,
,APAE,ELEMENT,Description of Element,550,C,40,,text,,,Req,Protocol,Protocol,Sponsor,Record Qualifier,*,,UPPERCASE,,Set based on the SE domain,The name of the Element.,NN DEFINED,ELEMENT,,,,,,,,,50,sdtme_std_etcd_v$$,
,APAE,TAETORD,Planned Order of Element within Arm,560,N,8,,integer,,,Perm,Protocol,Protocol,Sponsor,Timing,,,,,,Number that gives the planned order of the Element within the Arm for the element in which the assessment was made,TIMING,TAETORD,,,,,,,,,,,
,APAE,EPOCH,Epoch,570,C,40,,text,EPOCH,,Perm,Protocol,Protocol,Sponsor,Timing,(EPOCH),,UPPERCASE,,Set based on the SE domain,"Epoch associated with the start date/time of the observation, or the date/time of collection if start date/time is not collected. (See Section 3.2.2).",TIMING,EPOCH,,,,,,,,,40,sdtme_std_epoch_v$$,
,APAE,AESTDTC,Start Date/Time of Adverse Event,580,C,64,,datetime,,,Exp,,Collected,,Timing,ISO 8601,,UPPERCASE DATETIME,,,,TIMING,__STDTC,Y,,Y,,,,,,,,
,APAE,AEENDTC,End Date/Time of Adverse Event,590,C,64,,datetime,,,Exp,,Collected,,Timing,ISO 8601,,UPPERCASE DATETIME,,,,TIMING,__ENDTC,Y,,Y,,,,,,,,
,APAE,AESTDY,Study Day of Start of Adverse Event,600,N,8,,integer,,,Perm,Derived,Derived,Sponsor,Timing,,If AESTDTC GE RFSTDTC then AESTDY=AESTDTC-RFSTDTC+1; otherwise AESTDY=AESTDTC-RFSTDTC.,,,,Study day of start of adverse event relative to the sponsor-defined RFSTDTC.,TIMING,__STDY,,,,,,,,,10,sdtme_std_dy_v$$,
,APAE,AEENDY,Study Day of End of Adverse Event,610,N,8,,integer,,,Perm,Derived,Derived,Sponsor,Timing,,If AEENDTC GE RFSTDTC then AEENDY=AEENDTC-RFSTDTC+1; otherwise AEENDY=AEENDTC-RFSTDTC.,,,,Study day of end of event relative to the sponsor-defined RFSTDTC.,TIMING,__ENDY,,,,,,,,,10,sdtme_std_dy_v$$,
,APAE,AEDUR,Duration of Adverse Event,620,C,64,,durationDatetime,,,Perm,,,,Timing,ISO 8601,,UPPERCASE DURATION,,,"Collected duration and unit of an adverse event. Used only if collected on the CRF and not derived from start and end date/times. Example: P1DT2H (for 1 day, 2 hours).",TIMING,__DUR,Y,,Y,,,,,,,,
,APAE,AEENRF,End Relative to Reference Period,630,C,20,,text,STENRF,,Perm,Derived,Derived,Sponsor,Timing,(STENRF),"Classifies the end of the medication relative to reference period as defined by RFSTDTC and RFENDTC in Demographics. If reported as ongoing on the CRF, the value will be set to ONGOING.",UPPERCASE,,,Describes the end of the event relative to the sponsor-defined reference period. The sponsor-defined reference period is a continuous period of time defined by a discrete starting point (RFSTDTC) and a discrete ending point (RFENDTC) of the trial. This variable is proposed for deletion post SDTM V1.4.,TIMING,__ENRF,Y,,Y,,,,,,,,
,APAE,AESTRTPT,Start Relative to Reference Time Point,640,C,40,,text,STENRF,,Perm,Assigned,Assigned,Sponsor,Timing,(STENRF),,UPPERCASE,,,,TIMING,__STRTPT,Y,,Y,,,,,,,,BEFORE|COINCIDENT|AFTER|U
,APAE,AESTTPT,Start Reference Time Point,650,C,40,,text,,,Perm,Assigned,Assigned,Sponsor,Timing,,,UPPERCASE,,,,TIMING,__STTPT,Y,,Y,,,,,,,,
,APAE,AEENRTPT,End Relative to Reference Time Point,660,C,40,,text,STENRF,,Perm,Assigned,Assigned,Sponsor,Timing,(STENRF),,UPPERCASE,,,Identifies the end of the event as being before or after the reference time point defined by variable AEENTPT.,TIMING,__ENRTPT,Y,,Y,,,,,,,,BEFORE|COINCIDENT|AFTER|ONGOING|U
,APAE,AEENTPT,End Reference Time Point,670,C,40,,text,,,Perm,Assigned,Assigned,Sponsor,Timing,,,UPPERCASE,,,"Description of date/time in ISO 8601 character format of the reference point referred to by AEENRTPT. Examples: ""2003-12-25"" or ""VISIT 2"".",TIMING,__ENTPT,Y,,Y,,,,,,,,
,APCE,CDMS_SUB_EVT_NUM,CDMS Repeat Sequence Number,10,N,8,,integer,,,Perm,,,,Record Qualifier,,,,,,,NN DEFINED,CDMS_SUB_EVT_NUM,,subevnum,Y,Y,,,,,,,
,APCE,TOPIC_CD,CDW Topic Code,20,C,80,,text,,,Perm,,,,Topic,,,,,,,NN DEFINED,TOPIC_CD,,topiccd,Y,Y,,,,,,,
Y,APCE,STUDYID,Study Identifier,30,C,40,,text,,,Req,Protocol,Protocol,Sponsor,Identifier,,,UPPERCASE,,,Unique identifier for a study.,IDENTIFIERS,STUDYID,*,,Y,,,,,,,,
Y,APCE,DOMAIN,Domain Abbreviation,40,C,8,,text,DOMAIN,,Req,Assigned,Assigned,Sponsor,Identifier,APCE,,UPPERCASE,,,"Four-character abbreviation for the domain, AP--.",IDENTIFIERS,DOMAIN,*,,Y,,,,,,,,
,APCE,USUBJID,Unique Subject Identifier,50,C,60,,text,,,Req,Assigned,Assigned,Sponsor,Identifier,,,UPPERCASE,,Concatenation of STUDYID and DM.SUBJID (This is a variable for internal system use),Identifier used to uniquely identify a subject across all studies for all applications or submissions involving the product.,NN DEFINED,USUBJID,*,,Y,Y,,,,,,,
Y,APCE,APID,Associated Persons Identifier,60,C,60,,text,,,Req,Assigned,Assigned,Sponsor,Identifier,,,UPPERCASE,,,"Identifier for a single associated person, a group of associated persons, or a pool of associated persons. If APID identifies a pool, POOLDEF records must exist for each associated person.",IDENTIFIERS,APID,Y,,Y,,,,,,,,
Y,APCE,CESEQ,Sequence Number,70,N,8,,integer,,,Req,Assigned,Assigned,Sponsor,Identifier,,,,,,Sequence number to ensure uniqueness of records within a domain for associated persons. Unique within APID within the domain.,IDENTIFIERS,__SEQ,*,,Y,,,,,,,,
Y,APCE,RSUBJID,Related Subject,80,C,60,,text,,,Exp,CRF,Collected,Investigator,Record Qualifier,,,UPPERCASE,,,Identifier for a related study subject or pool of study subjects. The subject(s) may be human or animal. RSUBJID will be populated with the USUBJID of the related subject or the POOLID of the related pool. RSUBJID will be null for data about associated persons who are related to the study but not to any of the study subjects.,IDENTIFIERS,RSUBJID,Y,,Y,,,,,,,,
Y,APCE,RDEVID,Related Device,90,C,40,,text,,,Perm,CRF,Collected,Investigator,Record Qualifier,,,UPPERCASE,,,Identifier for a related device. RDEVID will be populated with the SPDEVID of the related device.,IDENTIFIERS,RDEVID,Y,,Y,,,,,,,,
Y,APCE,SREL,"Subject, Device, or Study Relationship",100,C,40,,text,RELSUB,,Req,CRF,Collected,Investigator,Record Qualifier,(RELSUB),,UPPERCASE,,,"If RSUBJID is populated, describes the relationship of the associated person(s) identified in APID to the subject or pool identified in RSUBJID. If RDEVID is populated, describes the relationship of the associated person(s) identified in APID to the device identified in RDEVID. If RSUBJID and RDEVID are null, SREL describes the relationship of the associated person(s) identified in APID to the study identified in STUDYID.",IDENTIFIERS,SREL,Y,,Y,,,,,,,,
,APCE,CEGRPID,Group ID,110,C,60,,text,,,Perm,Assigned,Assigned,Sponsor,Identifier,,,UPPERCASE,,,Used to tie together a block of related records for a subject within a domain.,IDENTIFIERS,__GRPID,Y,,Y,,,,,,,,
,APCE,CEREFID,Reference ID,120,C,80,,text,,,Perm,,Collected,,Identifier,,,UPPERCASE,,,Internal or external identifier.,IDENTIFIERS,__REFID,Y,,Y,,,,,,,,
,APCE,CESPID,Sponsor-Defined Identifier,130,C,40,,text,,,Perm,Assigned,Assigned,Sponsor,Identifier,,,UPPERCASE,,Sponsor-defined identifier. Example: pre-printed line identifier on a Concomitant Medications page.,Sponsor-defined identifier. Example: pre-printed line identifier on a Concomitant Medications page.,IDENTIFIERS,__SPID,*,,Y,,,,,,,,
,APCE,APCESPID,Sponsor-Defined Identifier,140,C,40,,text,,,Perm,Assigned,Assigned,Sponsor,Identifier,,,UPPERCASE,,"System generated unique identifier, required for Enriched SDTM generation.",,IDENTIFIERS,__SPID,*,,Y,Y,,,,,,,
,APCE,CELNKID,Link ID,150,C,60,,text,,,Perm,Assigned,Assigned,Sponsor,Identifier,,,UPPERCASE,,,Identifier used to link related records across domains. This may be a one-to- one or a one-to-many relationship. For Example: A single tumor may have multiple measurements/assessments performed at each study visit.,IDENTIFIERS,__LNKID,Y,,Y,,,,,,,,
,APCE,CELNKGRP,Link Group ID,160,C,60,,text,,,Perm,Assigned,Assigned,Sponsor,Identifier,,,UPPERCASE,,,Identifier used to link related records across domains. This will usually be a many-to-one relationship. For example: Multiple tumor measurements/assessments will contribute to a single response to therapy determination record.,IDENTIFIERS,__LNKGRP,Y,,Y,,,,,,,,
,APCE,CETERM,Reported Term for the Clinical Event,170,C,200,,text,,,Req,,Collected,,Topic,,,UPPERCASE,,,Term for the medical condition or event. Most likely pre-printed on CRF.,EVENTS,__TERM,Y,,Y,,,,,,,,
,APCE,CEDECOD,Dictionary-Derived Term,180,C,200,,text,,,Perm,Assigned,Assigned,Sponsor,Synonym Qualifier,*,,MIXEDCASE,,,Controlled terminology for the name of the clinical event. The sponsor is expected to provide the dictionary name and version used to map the terms utilizing the define.xml external codelist attributes,EVENTS,__DECOD,Y,,Y,,,,,,,,
,APCE,CECAT,Category for the Clinical Event,190,C,60,,text,CECAT,,Perm,Assigned,Assigned,Sponsor,Grouping Qualifier,*,,UPPERCASE,,,Used to define a category of related records.,EVENTS,__CAT,Y,,Y,,,,,,,,
,APCE,CESCAT,Subcategory for the Clinical Event,200,C,60,,text,,,Perm,Assigned,Assigned,Sponsor,Grouping Qualifier,*,,UPPERCASE,,,A further categorization of the condition or event.,EVENTS,__SCAT,Y,,Y,,,,,,,,
,APCE,CEPRESP,Clinical Event Pre-specified,210,C,2,,text,NY,,Perm,Assigned,Assigned,Sponsor,Variable Qualifier,(NY),,UPPERCASE,,,"Used to indicate whether the Event in CETERM was pre-specified. Value is Y for pre-specified events, null for spontaneously reported events.",EVENTS,__PRESP,Y,,Y,,,,,,,,Y
,APCE,CEOCCUR,Clinical Event Occurrence,220,C,2,,text,NY,,Perm,,,,Record Qualifier,(NY),,UPPERCASE,,,Used when the occurrence of specific events is solicited to indicate whether or not a clinical event occurred. Values are null for spontaneously reported events.,EVENTS,__OCCUR,Y,,Y,,,,,,,,Y|N
,APCE,CESTAT,Completion Status,230,C,40,,text,ND,,Perm,Derived,Derived,Sponsor,Record Qualifier,(ND),"Set to NOT DONE if 'ND', 'NA', 'NK' ,' ' have been reported on CRF",UPPERCASE,,,The status indicates that a question from a pre-specified list was not answered.,EVENTS,__STAT,Y,,Y,,,,,,,,
,APCE,CEREASND,Reason Clinical Event Not Collected,240,C,200,,text,,,Perm,,,,Record Qualifier,,,UPPERCASE,,,Describes the reason clinical event data was not collected. Used in conjunction with CESTAT when value is NOT DONE.,EVENTS,__REASND,Y,,Y,,,,,,,,
,APCE,CEBODSYS,Body System or Organ Class,250,C,200,,text,,,Perm,Assigned,Assigned,Sponsor,Record Qualifier,MedDRA,,MIXEDCASE,,,"Dictionary-derived. Body system or organ class that is involved in an event or measurement from a standard hierarchy (e.g., MedDRA). When using a multi- axial dictionary such as MedDRA, this should contain the SOC used for the sponsor's analyses and summary tables which may not necessarily be the primary SOC.",EVENTS,__BODSYS,Y,,Y,,,,,,,,
,APCE,CELOC,Location of Event,260,C,100,,text,LOC,,Perm,,,,Record Qualifier,(LOC),,UPPERCASE,,,,EVENTS,__LOC,Y,,Y,,,,,,,,
,APCE,CELAT,Laterality,270,C,40,,text,LAT,,Perm,,,,Variable Qualifier,(LAT),,UPPERCASE,,,"Qualifier for anatomical location further detailing laterality. Examples: RIGHT, LEFT, BILATERAL",EVENTS,__LAT,Y,,Y,,,,,,,,
,APCE,CESEV,Severity/Intensity,280,C,80,,text,,,Perm,,,,Record Qualifier,*,,UPPERCASE,,,"The severity or intensity of the event. Examples: MILD, MODERATE, SEVERE",EVENTS,__SEV,Y,,Y,,,,,,,,
,APCE,CEACN,Action Taken with Device,290,C,40,,text,,,Perm,,,,Record Qualifier,*,,UPPERCASE,,,Describes actions taken as a result of the event.,EVENTS,__ACN,Y,,Y,,,,,,,,
,APCE,CEACNOTH,Other Action Taken,300,C,200,,text,,,Perm,,,,Record Qualifier,,,UPPERCASE,,,Describes other actions taken as a result of the event not described in CEACN,EVENTS,__ACNOTH,Y,,Y,,,,,,,,
,APCE,CEACNDEV,Action Taken with Device,310,C,80,,text,,,Perm,,,,Record Qualifier,*,,UPPERCASE,,,"Action taken with respect to a device in a study, which may or may not be the device under study",EVENTS,__ACNDEV,Y,,Y,,,,,,,,
,APCE,CEOUT,Outcome of Event,320,C,40,,text,,,Perm,,,,Record Qualifier,*,,UPPERCASE,,,Description of the outcome of an event.,EVENTS,__OUT,Y,,Y,,,,,,,,
,APCE,CESCAN,Involves Cancer,330,C,2,,text,NY,,Perm,,,,Record Qualifier,(NY),,UPPERCASE,,,Was the serious event associated with the development of cancer?,EVENTS,__SCAN,,,,,,,,,,,
,APCE,CESCONG,Congenital Anomaly or Birth Defect,340,C,2,,text,NY,,Perm,,,,Record Qualifier,(NY),,UPPERCASE,,,Was the serious event associated with congenital anomaly or birth defect?,EVENTS,__SCONG,Y,,Y,,,,,,,,
,APCE,CESDISAB,Persist or Signif Disability/Incapacity,350,C,2,,text,NY,,Perm,,,,Record Qualifier,(NY),,UPPERCASE,,,Did the serious event result in persistent or significant disability/incapacity?,EVENTS,__SDISAB,Y,,Y,,,,,,,,
,APCE,CESDTH,Results in Death,360,C,2,,text,NY,,Perm,Derived,Derived,Sponsor,Record Qualifier,(NY),If CE record exists with CEOUT=FATAL then CESDTH=Y,UPPERCASE,,,Did the serious event result in death?,EVENTS,__SDTH,Y,,Y,,,,,,,,
,APCE,CESHOSP,Requires or Prolongs Hospitalization,370,C,2,,text,NY,,Perm,,,,Record Qualifier,(NY),,UPPERCASE,,,Did the serious event require or prolong hospitalization?,EVENTS,__SHOSP,Y,,Y,,,,,,,,
,APCE,CESLIFE,Is Life Threatening,380,C,2,,text,NY,,Perm,,,,Record Qualifier,(NY),,UPPERCASE,,,Was the serious event life threatening?,EVENTS,__SLIFE,Y,,Y,,,,,,,,
,APCE,CESOD,Occurred with Overdose,390,C,2,,text,NY,,Perm,,,,Record Qualifier,(NY),,UPPERCASE,,,Did the serious event occur with an overdose?,EVENTS,__SOD,,,,,,,,,,,
,APCE,CESMIE,Other Medically Important Serious Event,400,C,2,,text,NY,,Perm,,,,Record Qualifier,(NY),,UPPERCASE,,,Do additional categories for seriousness apply?,EVENTS,__SMIE,Y,,Y,,,,,,,,
,APCE,CETOX,Toxicity,410,C,80,,text,,,Perm,,,,Variable Qualifier,*,,UPPERCASE,,,,EVENTS,__TOX,Y,,Y,,,,,,,,
,APCE,CETOXGR,Standard Toxicity Grade,420,C,80,,text,,,Perm,,,,Record Qualifier,*,,UPPERCASE,,,"Toxicity grade according to a standard toxicity scale such as Common Terminology Criteria for Adverse Events v3.0 (CTCAE). Sponsor should specify name of the scale and version used in the metadata (see Assumption 6d). If value is from a numeric scale, represent only the number (e.g., ""2"" and not ""Grade 2"").",EVENTS,__TOXGR,Y,,Y,,,,,,,,
,APCE,ETCD,Element Code,430,C,8,,text,,,Req,Assigned,Assigned,Sponsor,Record Qualifier,*,,UPPERCASE,,,"ETCD (the companion to ELEMENT) is limited to 8 characters and does not have special character restrictions. These values should be short for ease of use in programming, but it is not expected that ETCD will need to serve as a variable name.",NN DEFINED,ETCD,,,,,,,,,30,sdtme_std_etcd_v$$,
,APCE,ELEMENT,Description of Element,440,C,40,,text,,,Req,Protocol,Protocol,Sponsor,Record Qualifier,*,,UPPERCASE,,Set based on the SE domain,The name of the Element.,NN DEFINED,ELEMENT,,,,,,,,,30,sdtme_std_etcd_v$$,
,APCE,VISITNUM,Visit Number,450,N,8,9.3,float,,,Perm,Protocol,Protocol,Sponsor,Timing,,,,,Multiple unscheduled visits or non-visits can exist having the same visit ID but with different dates. This might result in duplicate records for the same visit number but with different dates,,TIMING,VISITNUM,Y,,Y,,,,,,,,
,APCE,VISIT,Visit Name,460,C,40,,text,,,Perm,Protocol,Protocol,Sponsor,Timing,,,UPPERCASE,,,,TIMING,VISIT,,,,,,,,,40,sdtme_std_visit_v$$,
,APCE,VISITDY,Planned Study Day of Visit,470,N,8,,integer,,,Perm,Assigned,Assigned,Sponsor,Timing,,,,,Based on TV.VISITDY,,TIMING,VISITDY,,,,,,,,,50,sdtme_std_visitdy_v$$,
,APCE,TAETORD,Planned Order of Element within Arm,480,N,8,,integer,,,Perm,Protocol,Protocol,Sponsor,Timing,,,,,,Number that gives the planned order of the Element within the Arm for the element in which the assessment was made,TIMING,TAETORD,,,,,,,,,,,
,APCE,EPOCH,Epoch,490,C,40,,text,EPOCH,,Perm,Protocol,Protocol,Sponsor,Timing,(EPOCH),,UPPERCASE,,Set based on the SE domain,"Epoch associated with the start date/time of the observation, or the date/time of collection if start date/time is not collected. (See Section 3.2.2).",TIMING,EPOCH,,,,,,,,,20,sdtme_std_epoch_v$$,
,APCE,CEDTC,Date/Time of Event Collection,500,C,64,,datetime,,,Perm,,Collected,,Timing,ISO 8601,,UPPERCASE DATETIME,,,,TIMING,__DTC,Y,,Y,,,,,,,,
,APCE,CESTDTC,Start Date/Time of Clinical Event,510,C,64,,datetime,,,Perm,,Collected,,Timing,ISO 8601,,UPPERCASE DATETIME,,,,TIMING,__STDTC,Y,,Y,,,,,,,,
,APCE,CEENDTC,End Date/Time of Clinical Event,520,C,64,,datetime,,,Perm,,Collected,,Timing,ISO 8601,,UPPERCASE DATETIME,,,,TIMING,__ENDTC,Y,,Y,,,,,,,,
,APCE,CEDY,Study Day of Event Collection,530,N,8,,integer,,,Perm,Derived,Derived,Sponsor,Timing,,If CEDTC GE RFSTDTC then CEDY=CEDTC-RFSTDTC+1; otherwise CEDY=CEDTC-RFSTDTC.,,,,"1. Study day of clinical event collection, measured as integer days. 2. Algorithm for calculations must be relative to the sponsor-defined RFSTDTC variable in Demographics. This formula should be consistent across the submission.",TIMING,__DY,,,,,,,,,10,sdtme_std_dy_v$$,
,APCE,CESTDY,Study Day of Start of Event,540,N,8,,integer,,,Perm,Derived,Derived,Sponsor,Timing,,If CESTDTC GE RFSTDTC then CESTDY=CESTDTC-RFSTDTC+1; otherwise CESTDY=CESTDTC-RFSTDTC.,,,,,TIMING,__STDY,,,,,,,,,10,sdtme_std_dy_v$$,
,APCE,CEENDY,Study Day of End of Event,550,N,8,,integer,,,Perm,Derived,Derived,Sponsor,Timing,,If CEENDTC GE RFSTDTC then CEENDY=CEENDTC-RFSTDTC+1; otherwise CEENDY=CEENDTC-RFSTDTC.,,,,,TIMING,__ENDY,,,,,,,,,10,sdtme_std_dy_v$$,
,APCE,CEDUR,Duration,560,C,64,,durationDatetime,,,Perm,,,,Timing,ISO 8601,,UPPERCASE DURATION,,,,TIMING,__DUR,Y,,Y,,,,,,,,
,APCE,CESTRF,Start Relative to Reference Period,570,C,20,,text,STENRF,,Perm,Derived,Derived,Sponsor,Timing,(STENRF),Classifies the start of the medication relative to reference period as defined by RFSTDTC and RFENDTC in Demographics.,UPPERCASE,,,Describes the start of the clinical event relative to the sponsor-defined reference period. The sponsor-defined reference period is a continuous period of time defined by a discrete starting point and a discrete ending point (represented by RFSTDTC and RFENDTC in Demographics). This variable is proposed for deletion post SDTM V1.4.,TIMING,__STRF,Y,,Y,,,,,,,,
,APCE,CEENRF,End Relative to Reference Period,580,C,20,,text,STENRF,,Perm,Derived,Derived,Sponsor,Timing,(STENRF),"Classifies the end of the medication relative to reference period as defined by RFSTDTC and RFENDTC in Demographics. If reported as ongoing on the CRF, the value will be set to ONGOING.",UPPERCASE,,,Describes the end of the event relative to the sponsor-defined reference period. The sponsor-defined reference period is a continuous period of time defined by a discrete starting point and a discrete ending point (represented by RFSTDTC and RFENDTC in Demographics). This variable is proposed for deletion post SDTM V1.4.,TIMING,__ENRF,Y,,Y,,,,,,,,
,APCE,CESTRTPT,Start Relative to Reference Time Point,590,C,40,,text,STENRF,,Perm,,,,Timing,(STENRF),,UPPERCASE,,,Identifies the start of the observation as being before or after the reference time point defined by variable CESTTPT.,TIMING,__STRTPT,Y,,Y,,,,,,,,BEFORE|COINCIDENT|AFTER|U
,APCE,CESTTPT,Start Reference Time Point,600,C,40,,text,,,Perm,,,,Timing,,,UPPERCASE,,,"Description or date/time in ISO 8601 character format of the sponsor-defined reference point referred to by --STRTPT. Examples: ""2003-12-15"" or ""VISIT 1"".",TIMING,__STTPT,Y,,Y,,,,,,,,
,APCE,CEENRTPT,End Relative to Reference Time Point,610,C,40,,text,STENRF,,Perm,,,,Timing,(STENRF),,UPPERCASE,,,Identifies the end of the event as being before or after the reference time point defined by variable CEENTPT.,TIMING,__ENRTPT,Y,,Y,,,,,,,,BEFORE|COINCIDENT|AFTER|ONGOING|U
,APCE,CEENTPT,End Reference Time Point,620,C,40,,text,,,Perm,,,,Timing,,,UPPERCASE,,,"Description or date/time in ISO 8601 character format of the reference point referred to by CEENRTPT. Examples: ""2003-12-25"" or ""VISIT 2"".",TIMING,__ENTPT,Y,,Y,,,,,,,,
,APCM,SRC_ATC_CODE,SRC ATC Code,10,C,200,,text,,,Perm,,,,Record Qualifier,,,UPPERCASE,,,,NN DEFINED,SRC_ATC_CODE,,,Y,Y,,,,,,,
,APCM,SRC_ATC_TERM,SRC ATC Term,20,C,200,,text,,,Perm,,,,Record Qualifier,,,UPPERCASE,,,,NN DEFINED,SRC_ATC_TERM,,,Y,Y,,,,,,,
,APCM,TOPIC_CD,CDW Topic Code,30,C,80,,text,,,Perm,,,,Topic,,,,,,,NN DEFINED,TOPIC_CD,,topiccd,Y,Y,,,,,,,
Y,APCM,STUDYID,Study Identifier,40,C,40,,text,,,Req,Protocol,Protocol,Sponsor,Identifier,,,UPPERCASE,,,Unique identifier for a study.,IDENTIFIERS,STUDYID,*,,Y,,,,,,,,
Y,APCM,DOMAIN,Domain Abbreviation,50,C,8,,text,DOMAIN,,Req,Assigned,Assigned,Sponsor,Identifier,APCM,,UPPERCASE,,,"Four-character abbreviation for the domain, AP--.",IDENTIFIERS,DOMAIN,*,,Y,,,,,,,,
,APCM,USUBJID,Unique Subject Identifier,60,C,60,,text,,,Req,Assigned,Assigned,Sponsor,Identifier,,,UPPERCASE,,Concatenation of STUDYID and DM.SUBJID (This is a variable for internal system use),Identifier used to uniquely identify a subject across all studies for all applications or submissions involving the product.,NN DEFINED,USUBJID,*,,Y,Y,,,,,,,
Y,APCM,APID,Associated Persons Identifier,70,C,60,,text,,,Req,Assigned,Assigned,Sponsor,Identifier,,,UPPERCASE,,,"Identifier for a single associated person, a group of associated persons, or a pool of associated persons. If APID identifies a pool, POOLDEF records must exist for each associated person.",IDENTIFIERS,APID,Y,,Y,,,,,,,,
Y,APCM,CMSEQ,Sequence Number,80,N,8,,integer,,,Req,Assigned,Assigned,Sponsor,Identifier,,,,,,Sequence number to ensure uniqueness of records within a domain for associated persons. Unique within APID within the domain.,IDENTIFIERS,__SEQ,*,,Y,,,,,,,,
Y,APCM,RSUBJID,Related Subject,90,C,60,,text,,,Exp,CRF,Collected,Investigator,Record Qualifier,,,UPPERCASE,,,Identifier for a related study subject or pool of study subjects. The subject(s) may be human or animal. RSUBJID will be populated with the USUBJID of the related subject or the POOLID of the related pool. RSUBJID will be null for data about associated persons who are related to the study but not to any of the study subjects.,IDENTIFIERS,RSUBJID,Y,,Y,,,,,,,,
Y,APCM,RDEVID,Related Device,100,C,40,,text,,,Perm,CRF,Collected,Investigator,Record Qualifier,,,UPPERCASE,,,Identifier for a related device. RDEVID will be populated with the SPDEVID of the related device.,IDENTIFIERS,RDEVID,Y,,Y,,,,,,,,
Y,APCM,SREL,"Subject, Device, or Study Relationship",110,C,40,,text,RELSUB,,Req,CRF,Collected,Investigator,Record Qualifier,(RELSUB),,UPPERCASE,,,"If RSUBJID is populated, describes the relationship of the associated person(s) identified in APID to the subject or pool identified in RSUBJID. If RDEVID is populated, describes the relationship of the associated person(s) identified in APID to the device identified in RDEVID. If RSUBJID and RDEVID are null, SREL describes the relationship of the associated person(s) identified in APID to the study identified in STUDYID.",IDENTIFIERS,SREL,Y,,Y,,,,,,,,
,APCM,CMGRPID,Group ID,120,C,60,,text,,,Perm,Assigned,Assigned,Sponsor,Identifier,,,UPPERCASE,,,Used to tie together a block of related records in a single domain for a subject.,IDENTIFIERS,__GRPID,Y,,Y,,,,,,,,
,APCM,CMREFID,Reference ID,130,C,80,,text,,,Perm,,Collected,,Identifier,,,UPPERCASE,,,"Optional internal or external identifier such as lab specimen ID, or UUID for an ECG waveform or a medical image.",IDENTIFIERS,__REFID,Y,,Y,,,,,,,,
,APCM,CMSPID,Sponsor-Defined Identifier,140,C,40,,text,,,Perm,Assigned,Assigned,Sponsor,Identifier,,,UPPERCASE,,Sponsor-defined identifier. Example: pre-printed line identifier on a Concomitant Medications page.,Sponsor-defined identifier. Example: pre-printed line identifier on a Concomitant Medications page.,IDENTIFIERS,__SPID,*,,Y,,,,,,,,
,APCM,APCMSPID,Sponsor-Defined Identifier,150,C,40,,text,,,Perm,Assigned,Assigned,Sponsor,Identifier,,,UPPERCASE,,"System generated unique identifier, required for Enriched SDTM generation.",,IDENTIFIERS,__SPID,*,,Y,Y,,,,,,,
,APCM,CMLNKID,Link ID,160,C,60,,text,,,Perm,Assigned,Assigned,Sponsor,Identifier,,,UPPERCASE,,,Identifier used to link related records across domains. This may be a one-to- one or a one-to-many relationship. For Example: A single tumor may have multiple measurements/assessments performed at each study visit.,IDENTIFIERS,__LNKID,Y,,Y,,,,,,,,
,APCM,CMLNKGRP,Link Group ID,170,C,60,,text,,,Perm,Assigned,Assigned,Sponsor,Identifier,,,UPPERCASE,,,Identifier used to link related records across domains. This will usually be a many-to-one relationship. For example: Multiple tumor measurements/assessments will contribute to a single response to therapy determination record.,IDENTIFIERS,__LNKGRP,Y,,Y,,,,,,,,
,APCM,CMTRT,"Reported Name of Drug, Med, or Therapy",180,C,200,,text,,,Req,,Assigned,Sponsor,Topic,,,UPPERCASE,,,Verbatim medication name that is either pre-printed or collected on a CRF.,EVENTS,__TRT,Y,,Y,,,,,,,,
,APCM,CMMODIFY,Modified Reported Name,190,C,200,,text,,,Perm,,Collected,,Synonym Qualifier,,,UPPERCASE,,,"If CMTRT is modified to facilitate coding, then CMMODIFY will contain the modified text.",EVENTS,__MODIFY,Y,,Y,,,,,,,,
,APCM,CMDECOD,Standardized Medication Name,200,C,200,,text,,,Perm,Assigned,Assigned,Sponsor,Synonym Qualifier,WHODRUG,,MIXEDCASE,,,Standardized or dictionary-derived text description of CMTRT or CMMODIFY. Equivalent to the generic medication name in WHO Drug. The sponsor is expected to provide the dictionary name and version used to map the terms utilizing the define.xml external codelist attributes. If an intervention term does not have a decode value in the dictionary then CMDECOD will be left blank.,EVENTS,__DECOD,Y,,Y,,,,,,,,
,APCM,CMCAT,Category for Medication,210,C,60,,text,CMCAT,,Perm,Assigned,Assigned,Sponsor,Grouping Qualifier,*,,UPPERCASE,,,"Used to define a category of medications/treatments. Examples: PRIOR, CONCOMITANT, ANTI-CANCER MEDICATION, or GENERAL CONMED.",EVENTS,__CAT,Y,,Y,,,,,,,,
,APCM,CMSCAT,Subcategory for Medication,220,C,60,,text,,,Perm,Assigned,Assigned,Sponsor,Grouping Qualifier,*,,UPPERCASE,,,"A further categorization of medications/ treatment. Examples: CHEMOTHERAPY, HORMONAL THERAPY, ALTERNATIVE THERAPY.",EVENTS,__SCAT,Y,,Y,,,,,,,,
,APCM,CMPRESP,CM Pre-specified,230,C,2,,text,NY,,Perm,Assigned,Assigned,Sponsor,Variable Qualifier,(NY),,UPPERCASE,,,Used to indicate whether (Y/null) information about the use of a specific medication was solicited on the CRF.,EVENTS,__PRESP,Y,,Y,,,,,,,,Y
,APCM,CMOCCUR,CM Occurrence,240,C,2,,text,NY,,Perm,,,,Record Qualifier,(NY),,UPPERCASE,,,"When the use of specific medications is solicited, CMOCCUR is used to indicate whether or not (Y/N) use of the medication occurred. Values are null for medications not specifically solicited.",EVENTS,__OCCUR,Y,,Y,,,,,,,,Y|N
,APCM,CMSTAT,Completion Status,250,C,40,,text,ND,,Perm,Derived,Derived,Sponsor,Record Qualifier,(ND),"Set to NOT DONE if 'ND', 'NA', 'NK' ,' ' have been reported on CRF",UPPERCASE,,,Used to indicate that a question about a pre-specified medication was not answered. Should be null or have a value of NOT DONE.,EVENTS,__STAT,Y,,Y,,,,,,,,
,APCM,CMREASND,Reason Medication Not Collected,260,C,200,,text,,,Perm,,,,Record Qualifier,,,UPPERCASE,,,Describes the reason concomitant medication was not collected. Used in conjunction with CMSTAT when value is NOT DONE.,EVENTS,__REASND,Y,,Y,,,,,,,,
,APCM,CMINDC,Indication,270,C,200,,text,,,Perm,CRF,Collected,Investigator,Record Qualifier,,,UPPERCASE,,,"Denotes why a medication was taken or administered. Examples: NAUSEA, HYPERTENSION.",EVENTS,__INDC,Y,,Y,,,,,,,,
,APCM,CMCLAS,Medication Class,280,C,200,,text,,,Perm,Assigned,Assigned,Sponsor,Variable Qualifier,WHODRUG,,UPPERCASE,,,"Drug class. May be obtained from coding. When coding to a single class, populate with class value. If using a dictionary and coding to multiple classes, then follow Section 4: 4.1.2.8.3, Multiple Values For A Non-Result Qualifier Variable or omit CMCLAS.",EVENTS,__CLAS,Y,,Y,,,,,,,,
,APCM,CMCLASCD,Medication Class Code,290,C,40,,text,,,Perm,Assigned,Assigned,Sponsor,Variable Qualifier,WHODRUG,,UPPERCASE,,,"Class code corresponding to CMCLAS. Drug class. May be obtained from coding. When coding to a single class, populate with class code. If using a dictionary and coding to multiple classes, then follow Section 4: 4.1.2.8.3, Multiple Values For A Non-Result Qualifier Variable or omit CMCLASCD.",EVENTS,__CLASCD,Y,,Y,,,,,,30,sdtme_std_cd_v$$,
,APCM,CMDOSE,Dose per Administration,300,N,8,8.3,float,,,Perm,,,,Record Qualifier,,,,,,Amount of CMTRT taken. Not populated when CMDOSTXT is populated.,EVENTS,__DOSE,Y,,Y,,,,,,,,
,APCM,CMDOSTXT,Dose Description,310,C,200,,text,,,Perm,,,,Record Qualifier,,,UPPERCASE,,,"Dosing amounts or a range of dosing information collected in text form. Units may be stored in CMDOSU. Example: 200-400, 15-20. Not populated when CMDOSE is populated.",EVENTS,__DOSTXT,Y,,Y,,,,,,,,
,APCM,CMDOSU,Dose Units,320,C,40,,text,UNIT,,Perm,,,,Variable Qualifier,(UNIT),,MIXEDCASE,,,"Units for CMDOSE, CMDOSTOT, and CMDOSTXT. Examples: ng, mg, or mg/kg.",EVENTS,__DOSU,,unitcoll,Y,,,,,,60,sdtme_cm_dosufrq_v$$,
,APCM,CMDOSFRM,Dose Form,330,C,80,,text,FRM,,Perm,,,,Variable Qualifier,(FRM),,UPPERCASE,,,"Dose form for CMTRT. Examples: TABLET, LOTION.",EVENTS,__DOSFRM,Y,,Y,,,,,,,,
,APCM,CMDOSFRQ,Dosing Frequency per Interval,340,C,40,,text,FREQ,,Perm,CRF,Collected,Investigator,Variable Qualifier,(FREQ),,UPPERCASE,,,"Usually expressed as the number of repeated administrations of CMDOSE within a specific time period. Examples: BID (twice daily), Q12H (every 12 hours).",EVENTS,__DOSFRQ,,freqcoll,Y,,,,,,60,sdtme_cm_dosufrq_v$$,
,APCM,CMDOSTOT,Total Daily Dose,350,N,8,8.3,float,,,Perm,,,,Record Qualifier,,,,,,Total daily dose of CMTRT using the units in CMDOSU. Used when dosing is collected as Total Daily Dose. Total dose over a period other than day could be recorded in a separate Supplemental Qualifier variable.,EVENTS,__DOSTOT,Y,,Y,,,,,,,,
,APCM,CMDOSRGM,Intended Dose Regimen,360,C,40,,text,,,Perm,,,,Variable Qualifier,,,UPPERCASE,,,"Text description of the (intended) schedule or regimen for the Intervention. Examples: TWO WEEKS ON, TWO WEEKS OFF.",EVENTS,__DOSRGM,Y,,Y,,,,,,,,
,APCM,CMROUTE,Route of Administration,370,C,40,,text,ROUTE,,Perm,,,,Variable Qualifier,(ROUTE),,UPPERCASE,,,"Route of administration for CMTRT. Examples: ORAL, INTRAVENOUS.",EVENTS,__ROUTE,,routcoll,Y,,,,,,,,
,APCM,CMADJ,Reason for Dose Adjustment,380,C,200,,text,,,Perm,,,,Record Qualifier,,,UPPERCASE,,,Describes reason or explanation of why a dose is adjusted.,INTERVENTIONS,__ADJ,Y,,Y,,,,,,,,
,APCM,CMRSDISC,Reason the Intervention Was Discontinued,390,C,200,,text,,,Perm,,,,Record Qualifier,,,UPPERCASE,,,Reason why the treatment was discontinued.,INTERVENTIONS,__RSDISC,Y,,Y,,,,,,,,
,APCM,ETCD,Element Code,400,C,8,,text,,,Req,Assigned,Assigned,Sponsor,Record Qualifier,*,,UPPERCASE,,Set based on the SE domain,"ETCD (the companion to ELEMENT) is limited to 8 characters and does not have special character restrictions. These values should be short for ease of use in programming, but it is not expected that ETCD will need to serve as a variable name.",NN DEFINED,ETCD,,,,,,,,,50,sdtme_std_etcd_v$$,
,APCM,ELEMENT,Description of Element,410,C,40,,text,,,Req,Protocol,Protocol,Sponsor,Record Qualifier,*,,UPPERCASE,,Set based on the SE domain,The name of the Element.,NN DEFINED,ELEMENT,,,,,,,,,50,sdtme_std_etcd_v$$,
,APCM,TAETORD,Planned Order of Element within Arm,420,N,8,,integer,,,Perm,Protocol,Protocol,Sponsor,Timing,,,,,,Number that gives the planned order of the Element within the Arm for the element in which the assessment was made,TIMING,TAETORD,,,,,,,,,,,
,APCM,EPOCH,Epoch,430,C,40,,text,EPOCH,,Perm,Protocol,Protocol,Sponsor,Timing,(EPOCH),,UPPERCASE,,Set based on the SE domain,"Epoch associated with the start date/time of the observation, or the date/time of collection if start date/time is not collected. (See Section 3.2.2).",TIMING,EPOCH,,,,,,,,,40,sdtme_std_epoch_v$$,
,APCM,CMSTDTC,Start Date/Time of Medication,440,C,64,,datetime,,,Perm,,Collected,,Timing,ISO 8601,,UPPERCASE DATETIME,,,,TIMING,__STDTC,Y,,Y,,,,,,,,
,APCM,CMENDTC,End Date/Time of Medication,450,C,64,,datetime,,,Perm,,Collected,,Timing,ISO 8601,,UPPERCASE DATETIME,,,,TIMING,__ENDTC,Y,,Y,,,,,,,,
,APCM,CMSTDY,Study Day of Start of Medication,460,N,8,,integer,,,Perm,Derived,Derived,Sponsor,Timing,,If CMSTDTC GE RFSTDTC then CMSTDY=CMSTDTC-RFSTDTC+1; otherwise CMSTDY=CMSTDTC-RFSTDTC.,,,,Study day of start of medication relative to the sponsor-defined RFSTDTC.,TIMING,__STDY,,,,,,,,,10,sdtme_std_dy_v$$,
,APCM,CMENDY,Study Day of End of Medication,470,N,8,,integer,,,Perm,Derived,Derived,Sponsor,Timing,,If CMENDTC GE RFSTDTC then CMENDY=CMENDTC-RFSTDTC+1; otherwise CMENDY=CMENDTC-RFSTDTC.,,,,Study day of end of medication relative to the sponsor-defined RFSTDTC.,TIMING,__ENDY,,,,,,,,,10,sdtme_std_dy_v$$,
,APCM,CMDUR,Duration,480,C,64,,durationDatetime,,,Perm,,,,Timing,ISO 8601,,UPPERCASE DURATION,,,Collected duration for a treatment episode. Used only if collected on the CRF and not derived from start and end date/times.,TIMING,__DUR,Y,,Y,,,,,,,,
,APCM,CMTPT,Planned Time Point Name,490,C,80,,text,,,Perm,,,,Timing,,,UPPERCASE,,,"Text description of time when a measurement or observation should be taken as defined in the protocol. This may be represented as an elapsed time relative to a fixed reference point, such as time of last dose. See --TPTNUM and -- TPTREF.",TIMING,__TPT,Y,,Y,,,,,,110,sdtme_std_tpt_v$$,
,APCM,CMTPTNUM,Planned Time Point Number,500,N,8,8.1,float,,,Perm,,,,Timing,,,,,,Numeric version of planned time point used in sorting.,TIMING,__TPTNUM,Y,,Y,,,,,,110,sdtme_std_tpt_v$$,
,APCM,CMELTM,Planned Elapsed Time from Time Point Ref,510,C,64,,durationDatetime,,,Perm,,,,Timing,ISO 8601,,UPPERCASE DURATION,,,"Planned Elapsed time in ISO 8601 character format relative to a planned fixed reference (--TPTREF) such as ""Previous Dose"" or ""Previous Meal"". This variable is useful where there are repetitive measures. Not a clock time or a date/time variable, but an interval, represented as ISO duration.",TIMING,__ELTM,Y,,Y,,,,,,,,
,APCM,CMTPTREF,Time Point Reference,520,C,80,,text,,,Perm,,,,Timing,,,UPPERCASE,,,"Description of the fixed reference point referred to by --ELTM, --TPTNUM, and --TPT. Examples: PREVIOUS DOSE, PREVIOUS MEAL.",TIMING,__TPTREF,Y,,Y,,,,,,110,sdtme_std_tpt_v$$,
,APCM,CMRFTDTC,Date/Time of Reference Time Point,530,C,64,,datetime,,,Perm,,,,Timing,ISO 8601,,UPPERCASE DATETIME,,,Date/time for a fixed reference time point defined by --TPTREF in ISO 8601 character format.,TIMING,__RFTDTC,Y,,Y,,,,,,,,
,APCM,CMSTRF,Start Relative to Reference Period,540,C,20,,text,STENRF,,Perm,Derived,Derived,Sponsor,Timing,(STENRF),Classifies the start of the medication relative to reference period as defined by RFSTDTC and RFENDTC in Demographics.,UPPERCASE,,,"Describes the start of the medication relative to sponsor-defined reference period. The sponsor-defined reference period is a continuous period of time defined by a discrete starting point and a discrete ending point (represented by RFSTDTC and RFENDTC in Demographics). If information such as ""PRIOR"", ONGOING or ""CONTINUING"" was collected, this information may be translated into CMSTRF. This variable is proposed for deletion post SDTM V1.4.",TIMING,__STRF,Y,,Y,,,,,,,,
,APCM,CMENRF,End Relative to Reference Period,550,C,20,,text,STENRF,,Perm,Derived,Derived,Sponsor,Timing,(STENRF),"Classifies the end of the medication relative to reference period as defined by RFSTDTC and RFENDTC in Demographics. If reported as continuing on the CRF, the value will be set to ONGOING.",UPPERCASE,,,"Describes the end of the medication relative to the sponsor-defined reference period. The sponsor-defined reference period is a continuous period of time defined by a discrete starting point and a discrete ending point (represented by RFSTDTC and RFENDTC in Demographics). If information such as ""PRIOR"", ""ONGOING"", or ""CONTINUING"" was collected, this information may be translated into CMENRF. This variable is proposed for deletion post SDTM V1.4.",TIMING,__ENRF,Y,,Y,,,,,,,,
,APCM,CMSTRTPT,Start Relative to Reference Time Point,560,C,40,,text,STENRF,,Perm,Assigned,Assigned,Sponsor,Timing,(STENRF),,UPPERCASE,,,Identifies the start of the medication as being before or after the reference time point defined by variable CMSTTPT.,TIMING,__STRTPT,Y,,Y,,,,,,,,BEFORE|COINCIDENT|AFTER|U
,APCM,CMSTTPT,Start Reference Time Point,570,C,40,,text,,,Perm,Assigned,Assigned,Sponsor,Timing,,,UPPERCASE,,,"Description or date/time in ISO 8601 character format of the reference point referred to by CMSTRTPT. Examples: ""2003-12-15"" or ""VISIT 1"".",TIMING,__STTPT,Y,,Y,,,,,,,,
,APCM,CMENRTPT,End Relative to Reference Time Point,580,C,40,,text,STENRF,,Perm,Assigned,Assigned,Sponsor,Timing,(STENRF),,UPPERCASE,,,Identifies the end of the medication as being before or after the reference time point defined by variable CMENTPT.,TIMING,__ENRTPT,Y,,Y,,,,,,,,BEFORE|COINCIDENT|AFTER|ONGOING|U
,APCM,CMENTPT,End Reference Time Point,590,C,40,,text,,,Perm,Assigned,Assigned,Sponsor,Timing,,,UPPERCASE,,,"Description or date/time in ISO 8601 character format of the reference point referred to by CMENRTPT. Examples: ""2003-12-25"" or ""VISIT 2"".",TIMING,__ENTPT,Y,,Y,,,,,,,,
,APDD,TOPIC_CD,CDW Topic Code,10,C,80,,text,,,Perm,,,,Topic,,,,,,,NN DEFINED,TOPIC_CD,,topiccd,Y,Y,,,,,,,
Y,APDD,STUDYID,Study Identifier,20,C,40,,text,,,Req,Protocol,Protocol,Sponsor,Identifier,,,UPPERCASE,,,Unique identifier for a study.,IDENTIFIERS,STUDYID,*,,Y,,,,,,,,
Y,APDD,DOMAIN,Domain Abbreviation,30,C,8,,text,DOMAIN,,Req,Assigned,Assigned,Sponsor,Identifier,APDD,,UPPERCASE,,,"Four-character abbreviation for the domain, AP--.",IDENTIFIERS,DOMAIN,*,,Y,,,,,,,,
,APDD,USUBJID,Unique Subject Identifier,40,C,60,,text,,,Req,Assigned,Assigned,Sponsor,Identifier,,,UPPERCASE,,Concatenation of STUDYID and DM.SUBJID (This is a variable for internal system use),Identifier used to uniquely identify a subject across all studies for all applications or submissions involving the product.,NN DEFINED,USUBJID,*,,Y,Y,,,,,,,
Y,APDD,APID,Associated Persons Identifier,50,C,60,,text,,,Req,Assigned,Assigned,Sponsor,Identifier,,,UPPERCASE,,,"Identifier for a single associated person, a group of associated persons, or a pool of associated persons. If APID identifies a pool, POOLDEF records must exist for each associated person.",IDENTIFIERS,APID,Y,,Y,,,,,,,,
Y,APDD,DDSEQ,Sequence Number,60,N,8,,integer,,,Req,Assigned,Assigned,Sponsor,Identifier,,,,,,Sequence number to ensure uniqueness of records within a domain for associated persons. Unique within APID within the domain.,IDENTIFIERS,__SEQ,*,,Y,,,,,,,,
Y,APDD,RSUBJID,Related Subject,70,C,60,,text,,,Exp,CRF,Collected,Investigator,Record Qualifier,,,UPPERCASE,,,Identifier for a related study subject or pool of study subjects. The subject(s) may be human or animal. RSUBJID will be populated with the USUBJID of the related subject or the POOLID of the related pool. RSUBJID will be null for data about associated persons who are related to the study but not to any of the study subjects.,IDENTIFIERS,RSUBJID,Y,,Y,,,,,,,,
Y,APDD,RDEVID,Related Device,80,C,40,,text,,,Perm,CRF,Collected,Investigator,Record Qualifier,,,UPPERCASE,,,Identifier for a related device. RDEVID will be populated with the SPDEVID of the related device.,IDENTIFIERS,RDEVID,Y,,Y,,,,,,,,
Y,APDD,SREL,"Subject, Device, or Study Relationship",90,C,40,,text,RELSUB,,Req,CRF,Collected,Investigator,Record Qualifier,(RELSUB),,UPPERCASE,,,"If RSUBJID is populated, describes the relationship of the associated person(s) identified in APID to the subject or pool identified in RSUBJID. If RDEVID is populated, describes the relationship of the associated person(s) identified in APID to the device identified in RDEVID. If RSUBJID and RDEVID are null, SREL describes the relationship of the associated person(s) identified in APID to the study identified in STUDYID.",IDENTIFIERS,SREL,Y,,Y,,,,,,,,
,APDD,DDSPID,Sponsor-Defined Identifier,100,C,40,,text,,,Perm,Assigned,Assigned,Sponsor,Identifier,,,UPPERCASE,,Sponsor-defined identifier. Example: pre-printed line identifier on a Concomitant Medications page.,Sponsor-defined identifier. Example: pre-printed line identifier on a Concomitant Medications page.,IDENTIFIERS,__SPID,*,,Y,,,,,,,,
,APDD,APDDSPID,Sponsor-Defined Identifier,110,C,40,,text,,,Perm,Assigned,Assigned,Sponsor,Identifier,,,UPPERCASE,,"System generated unique identifier, required for Enriched SDTM generation.",,IDENTIFIERS,__SPID,*,,Y,Y,,,,,,,
,APDD,DDLNKID,Link ID,120,C,60,,text,,,Perm,Assigned,Assigned,Sponsor,Identifier,,,UPPERCASE,,,Identifier used to link related records across domains. This may be a one-to- one or a one-to-many relationship. For Example: A single tumor may have multiple measurements/assessments performed at each study visit.,IDENTIFIERS,__LNKID,Y,,Y,,,,,,,,
,APDD,DDLNKGRP,Link Group ID,130,C,60,,text,,,Perm,Assigned,Assigned,Sponsor,Identifier,,,UPPERCASE,,,Identifier used to link related records across domains. This will usually be a many-to-one relationship. For example: Multiple tumor measurements/assessments will contribute to a single response to therapy determination record.,IDENTIFIERS,__LNKGRP,Y,,Y,,,,,,,,
,APDD,DDTESTCD,Death Detail Assessment Short Name,140,C,8,,text,DTHDXCD,,Req,,Assigned,Sponsor,Topic,(DTHDXCD),,UPPERCASE,,,"Short name of the measurement, test, or examination described in DDTEST. It can be used as a column name when converting a dataset from a vertical to a horizontal format. The value in DDTESTCD cannot be longer than 8 characters, nor can it start with a number (e.g., ""1TEST"" is not valid). DDTESTCD cannot contain characters other than letters, numbers, or underscores. Examples: DIAGPRIM, DIAGSEC, DTHWIT",FINDINGS,__TESTCD,Y,,Y,,,,,,,,
,APDD,DDTEST,Death Detail Assessment Name,150,C,40,,text,DTHDX,,Req,,Assigned,Sponsor,Synonym Qualifier,(DTHDX),,MIXEDCASE,,,"Long name for DDTESTCD. The value in DDTEST cannot be longer than 40 characters. Examples: Primary Diagnosis, Secondary Diagnosis, Was Death Witnessed?",FINDINGS,__TEST,Y,,Y,,,,,,,,
,APDD,DDORRES,Result or Finding as Collected,160,C,200,,text,,,Exp,,,,Result Qualifier,,,UPPERCASE,,,"Result of the test defined in DDTEST, as originally received or collected.",FINDINGS,__ORRES,Y,,Y,,,,,,,,
,APDD,DDSTRESC,Character Result/Finding in Std Format,170,C,200,,text,,,Exp,Derived,Derived,Sponsor,Result Qualifier,,Finding in Original Units converted to SI unit,UPPERCASE,,,Contains the result or finding copied or derived from DDORRES in a standard format.,FINDINGS,__STRESC,Y,,Y,,,,,,20,sdtme_std_strescnu_v$$,
,APDD,DDRESCAT,Result Category,180,C,60,,text,,,Perm,,,,Variable Qualifier,*,,UPPERCASE,,,"Used to categorize the result of a finding. Examples: TREATMENT RELATED, NONTREATMENT RELATED, UNDETERMINED, ACCIDENTAL",FINDINGS,__RESCAT,,,,,,,,,,,
,APDD,DDEVAL,Evaluator,190,C,40,,text,EVAL,,Perm,,,,Record Qualifier,(EVAL),,UPPERCASE,,,Role of the person who provided the evaluation.,FINDINGS,__EVAL,Y,,Y,,,,,,,,
,APDD,DDEVALID,Evaluator Identifier,200,C,40,,text,MEDEVAL,,Perm,,,,Variable Qualifier,(MEDEVAL),,UPPERCASE,,,Used to distinguish multiple evaluators with the same role recorded in --EVAL. Examples: RADIOLOGIST1 or RADIOLOGIST2,FINDINGS,__EVALID,Y,,Y,,,,,,,,
,APDD,DDREPNUM,Repetition Number,210,N,8,,integer,,,Perm,,,,Record Qualifier,,,,,,"The incidence number of a test that is repeated within a given timeframe for the same test. The level of granularity can vary, e.g., within a time point or within a visit. For example, multiple measurements of blood pressure or multiple analyses of a sample.",FINDINGS,__REPNUM,Y,,Y,,,,,,,,
,APDD,ETCD,Element Code,220,C,8,,text,,,Req,Assigned,Assigned,Sponsor,Record Qualifier,*,,UPPERCASE,,,"ETCD (the companion to ELEMENT) is limited to 8 characters and does not have special character restrictions. These values should be short for ease of use in programming, but it is not expected that ETCD will need to serve as a variable name.",NN DEFINED,ETCD,,,,,,,,,40,sdtme_std_etcd_v$$,
,APDD,ELEMENT,Description of Element,230,C,40,,text,,,Req,Protocol,Protocol,Sponsor,Record Qualifier,*,,UPPERCASE,,Set based on the SE domain,The name of the Element.,NN DEFINED,ELEMENT,,,,,,,,,40,sdtme_std_etcd_v$$,
,APDD,TAETORD,Planned Order of Element within Arm,240,N,8,,integer,,,Perm,Protocol,Protocol,Sponsor,Timing,,,,,,Number that gives the planned order of the Element within the Arm for the element in which the assessment was made,TIMING,TAETORD,,,,,,,,,,,
,APDD,EPOCH,Epoch,250,C,40,,text,EPOCH,,Perm,Protocol,Protocol,Sponsor,Timing,(EPOCH),,UPPERCASE,,Set based on the SE domain,"Epoch associated with the start date/time of the observation, or the date/time of collection if start date/time is not collected. (See Section 3.2.2).",TIMING,EPOCH,,,,,,,,,30,sdtme_std_epoch_v$$,
,APDD,DDDTC,Date/Time of Collection,260,C,64,,datetime,,,Exp,,Collected,,Timing,ISO 8601,,UPPERCASE DATETIME,,,Date/time of collection of the diagnosis or other death assessment data in ISO 8601 format. This is not necessarily the date of death.,TIMING,__DTC,Y,,Y,,,,,,,,
,APDD,DDSTDTC,Start Date/Time of Observation,270,C,64,,datetime,,,Perm,,,,Timing,ISO 8601,,UPPERCASE DATETIME,,,Start date/time of an observation.,NN DEFINED,__STDTC,Y,,Y,,,,,,,,
,APDD,DDENDTC,End Date/Time of Observation,280,C,64,,datetime,,,Perm,,Collected,,Timing,ISO 8601,,UPPERCASE DATETIME,,,End date/time of the observation represented in IS0 8601 character format.,TIMING,__ENDTC,Y,,Y,,,,,,,,
,APDD,DDDY,Study Day of Collection,290,N,8,,integer,,,Perm,Derived,Derived,Sponsor,Timing,,If DDDTC GE RFSTDTC then DDDY=DDDTC-RFSTDTC+1; otherwise DDDY=DDDTC-RFSTDTC.,,,,"Study day of the collection, in integer days. The algorithm for calculations must be relative to the sponsor-defined RFSTDTC variable in the Demographics (DM) domain.",TIMING,__DY,,,,,,,,,10,sdtme_std_dy_v$$,
,APDD,DDSTDY,Study Day of Start of Observation,300,N,8,,integer,,,Perm,Derived,Derived,Sponsor,Timing,,If DDSTDTC GE RFSTDTC then DDSTDY=DDSTDTC-RFSTDTC+1; otherwise DDSTDY=DDSTDTC-RFSTDTC.,,,,Actual study day of start of observation expressed in integer days relative to the sponsor-defined RFSTDTC in Demographics.,TIMING,__STDY,,,,,,,,,,,
,APDD,DDENDY,Study Day of End of Observation,310,N,8,,integer,,,Perm,Derived,Derived,Sponsor,Timing,,If DDENDTC GE RFSTDTC then DDENDY=DDENDTC-RFSTDTC+1; otherwise DDENDY=DDENDTC-RFSTDTC.,,,,Actual study day of end of observation expressed in integer days relative to the sponsor-defined RFSTDTC in Demographics.,TIMING,__ENDY,,,,,,,,,10,sdtme_std_dy_v$$,
Y,APDM,STUDYID,Study Identifier,10,C,40,,text,,,Req,Protocol,Protocol,Sponsor,Identifier,,,UPPERCASE,,,Unique identifier for a study.,IDENTIFIERS,STUDYID,*,,Y,,,,,,,,
Y,APDM,DOMAIN,Domain Abbreviation,20,C,8,,text,DOMAIN,,Req,Assigned,Assigned,Sponsor,Identifier,APDM,,UPPERCASE,,,"Four-character abbreviation for the domain, AP--.",IDENTIFIERS,DOMAIN,*,,Y,,,,,,,,
,APDM,USUBJID,Unique Subject Identifier,30,C,60,,text,,,Req,Assigned,Assigned,Sponsor,Identifier,,,UPPERCASE,,Concatenation of STUDYID and DM.SUBJID (This is a variable for internal system use),Identifier used to uniquely identify a subject across all studies for all applications or submissions involving the product.,NN DEFINED,USUBJID,*,,Y,Y,,,,,,,
Y,APDM,APID,Associated Persons Identifier,40,C,60,,text,,,Req,Assigned,Assigned,Sponsor,Identifier,,,UPPERCASE,,,"Identifier for a single associated person, a group of associated persons, or a pool of associated persons. If APID identifies a pool, POOLDEF records must exist for each associated person.",IDENTIFIERS,APID,Y,,Y,,,,,,,,
Y,APDM,DMSEQ,Sequence Number,50,N,8,,integer,,,Req,Assigned,Assigned,Sponsor,Identifier,,,,,,Sequence number to ensure uniqueness of records within a domain for associated persons. Unique within APID within the domain.,IDENTIFIERS,__SEQ,*,,Y,,,,,,,,
Y,APDM,RSUBJID,Related Subject,60,C,60,,text,,,Exp,CRF,Collected,Investigator,Record Qualifier,,,UPPERCASE,,,Identifier for a related study subject or pool of study subjects. The subject(s) may be human or animal. RSUBJID will be populated with the USUBJID of the related subject or the POOLID of the related pool. RSUBJID will be null for data about associated persons who are related to the study but not to any of the study subjects.,IDENTIFIERS,RSUBJID,Y,,Y,,,,,,,,
Y,APDM,RDEVID,Related Device,70,C,40,,text,,,Perm,CRF,Collected,Investigator,Record Qualifier,,,UPPERCASE,,,Identifier for a related device. RDEVID will be populated with the SPDEVID of the related device.,IDENTIFIERS,RDEVID,Y,,Y,,,,,,,,
Y,APDM,SREL,"Subject, Device, or Study Relationship",80,C,40,,text,RELSUB,,Req,CRF,Collected,Investigator,Record Qualifier,(RELSUB),,UPPERCASE,,,"If RSUBJID is populated, describes the relationship of the associated person(s) identified in APID to the subject or pool identified in RSUBJID. If RDEVID is populated, describes the relationship of the associated person(s) identified in APID to the device identified in RDEVID. If RSUBJID and RDEVID are null, SREL describes the relationship of the associated person(s) identified in APID to the study identified in STUDYID.",IDENTIFIERS,SREL,Y,,Y,,,,,,,,
,APDM,DMSPID,Sponsor-Defined Identifier,90,C,40,,text,,,Perm,Assigned,Assigned,Sponsor,Identifier,,,UPPERCASE,,Sponsor-defined identifier. Example: pre-printed line identifier on a Concomitant Medications page.,Sponsor-defined identifier. Example: pre-printed line identifier on a Concomitant Medications page.,IDENTIFIERS,__SPID,*,,Y,,,,,,,,
,APDM,APDMSPID,Sponsor-Defined Identifier,100,C,40,,text,,,Perm,Assigned,Assigned,Sponsor,Identifier,,,UPPERCASE,,"System generated unique identifier, required for Enriched SDTM generation.",,IDENTIFIERS,__SPID,*,,Y,Y,,,,,,,
,APDM,DTHDTC,Date/Time of Death,110,C,64,,datetime,,,Exp,Derived,Derived,Sponsor,Record Qualifier,ISO 8601,When DTHDTC is missing: if DD record exists with non-missing DDDTC then DTHDTC=DDDTC or AE record exists with AESDTH=Y then DTHDTC=AEENDTC,UPPERCASE DATETIME,,,"Date/time of death for any subject who died, in ISO 8601 format. Should represent the date/time that is captured in the clinical-trial database.",DM,DTHDTC,Y,,Y,,,,,,40,sdtme_dm_dth_v$$,
,APDM,DTHFL,Subject Death Flag,120,C,2,,text,NY,,Exp,Derived,Derived,Sponsor,Record Qualifier,(NY),If DTHDTC is not missing or APDD record exists or APAE record exists with AESDTH=Y then DTHFL=Y,UPPERCASE,,,Indicates the subject died. Should be Y or null. Should be populated even when the death date is unknown.,DM,DTHFL,,,,,,,,,40,sdtme_dm_dth_v$$,Y
,APDM,BRTHDTC,Date/Time of Birth,130,C,64,,datetime,,,Perm,CRF,Collected,Investigator,Record Qualifier,ISO 8601,,UPPERCASE DATETIME,,,Date/time of birth of the subject.,DM,BRTHDTC,Y,,Y,,,,,,,,
,APDM,AGE,Age,140,N,8,8.1,float,,,Exp,Derived,Derived,Sponsor,Record Qualifier,,Derived according to age at baseline rule,,,Age at start of trial,"Age expressed in AGEU. May be derived from RFSTDTC and BRTHDTC, but BRTHDTC may not be available in all cases (due to subject privacy concerns).",DM,AGE,,,,,,,,,30,#age_at_baseline_rl,
,APDM,AGEU,Age Units,150,C,10,,text,AGEU,,Exp,Assigned,Assigned,Sponsor,Variable Qualifier,(AGEU),,UPPERCASE,,,Units associated with AGE.,DM,AGEU,,,,,,,,,30,#age_at_baseline_rl,
,APDM,SEX,Sex,160,C,2,,text,SEX,,Req,CRF,Collected,Investigator,Record Qualifier,(SEX),,UPPERCASE,,,Sex of the subject.,DM,SEX,Y,,Y,,,,,,,,
,APDM,RACE,Race,170,C,80,,text,RACE,,Exp,CRF,Collected,Investigator,Record Qualifier,(RACE),,UPPERCASE,,,"Race of the subject. Sponsors should refer to ""Collection of Race and Ethnicity Data in Clinical Trials"" (FDA, September 2005) for guidance regarding the collection of race (http://www.fda.gov/RegulatoryInformation/Guidances/ucm126340.htm) See Assumption below regarding RACE.",DM,RACE,Y,,Y,,,,,,20,sdtme_std_qnam_v$$,
,APDM,ETHNIC,Ethnicity,180,C,40,,text,ETHNIC,,Perm,CRF,Collected,Investigator,Record Qualifier,(ETHNIC),,UPPERCASE,,,"The ethnicity of the subject. Sponsors should refer to ""Collection of Race and Ethnicity Data in Clinical Trials"" (FDA, September 2005) for guidance regarding the collection of ethnicity (http://www.fda.gov/RegulatoryInformation/Guidances/ucm126340.htm).",DM,ETHNIC,Y,,Y,,,,,,,,
,APDM,COUNTRY,Country,190,C,3,,text,,,Req,Assigned,Assigned,Sponsor,Record Qualifier,ISO 3166-1 Alpha-3,,UPPERCASE,,,Country of the investigational site in which the subject participated in the trial.,DM,COUNTRY,,,,,,,,,,,
,APFACE,CDMS_SUB_EVT_NUM,CDMS Repeat Sequence Number,10,N,8,,integer,,,Perm,,,,Record Qualifier,,,,,,,NN DEFINED,CDMS_SUB_EVT_NUM,,subevnum,Y,Y,,,,,,,
,APFACE,SRC_FIND_COLL_UNIT,CDW SRC Finding Collection Unit,20,C,80,,text,,,Perm,,,,Record Qualifier,,,,,,,NN DEFINED,SRC_FIND_COLL_UNIT,,unitcoll,Y,Y,,,,,,,
,APFACE,SRC_TOPIC_CD,CDW SRC Topic Code,30,C,200,,text,,,Perm,,,,Topic,,,,,,,NN DEFINED,SRC_TOPIC_CD,,,Y,Y,,,,,,,
,APFACE,TOPIC_CD,CDW Topic Code,40,C,80,,text,,,Perm,,,,Topic,,,,,,,NN DEFINED,TOPIC_CD,,topiccd,Y,Y,,,,,,,
Y,APFACE,STUDYID,Study Identifier,50,C,40,,text,,,Req,Protocol,Protocol,Sponsor,Identifier,,,UPPERCASE,,,Unique identifier for a study.,IDENTIFIERS,STUDYID,*,,Y,,,,,,,,
Y,APFACE,DOMAIN,Domain Abbreviation,60,C,8,,text,DOMAIN,,Req,Assigned,Assigned,Sponsor,Identifier,APFACE,,UPPERCASE,,,"Four-character abbreviation for the domain, AP--.",IDENTIFIERS,DOMAIN,*,,Y,,,,,,,,
,APFACE,USUBJID,Unique Subject Identifier,70,C,60,,text,,,Req,Assigned,Assigned,Sponsor,Identifier,,,UPPERCASE,,Concatenation of STUDYID and DM.SUBJID (This is a variable for internal system use),Identifier used to uniquely identify a subject across all studies for all applications or submissions involving the product.,NN DEFINED,USUBJID,*,,Y,Y,,,,,,,
Y,APFACE,APID,Associated Persons Identifier,80,C,60,,text,,,Req,Assigned,Assigned,Sponsor,Identifier,,,UPPERCASE,,,"Identifier for a single associated person, a group of associated persons, or a pool of associated persons. If APID identifies a pool, POOLDEF records must exist for each associated person.",IDENTIFIERS,APID,Y,,Y,,,,,,,,
Y,APFACE,FASEQ,Sequence Number,90,N,8,,integer,,,Req,Assigned,Assigned,Sponsor,Identifier,,,,,,Sequence number to ensure uniqueness of records within a domain for associated persons. Unique within APID within the domain.,IDENTIFIERS,__SEQ,*,,Y,,,,,,,,
Y,APFACE,RSUBJID,Related Subject,100,C,60,,text,,,Exp,CRF,Collected,Investigator,Record Qualifier,,,UPPERCASE,,,Identifier for a related study subject or pool of study subjects. The subject(s) may be human or animal. RSUBJID will be populated with the USUBJID of the related subject or the POOLID of the related pool. RSUBJID will be null for data about associated persons who are related to the study but not to any of the study subjects.,IDENTIFIERS,RSUBJID,Y,,Y,,,,,,,,
Y,APFACE,RDEVID,Related Device,110,C,40,,text,,,Perm,CRF,Collected,Investigator,Record Qualifier,,,UPPERCASE,,,Identifier for a related device. RDEVID will be populated with the SPDEVID of the related device.,FINDINGS,RDEVID,Y,,Y,,,,,,,,
Y,APFACE,SREL,"Subject, Device, or Study Relationship",120,C,40,,text,RELSUB,,Req,CRF,Collected,Investigator,Record Qualifier,(RELSUB),,UPPERCASE,,,"If RSUBJID is populated, describes the relationship of the associated person(s) identified in APID to the subject or pool identified in RSUBJID. If RDEVID is populated, describes the relationship of the associated person(s) identified in APID to the device identified in RDEVID. If RSUBJID and RDEVID are null, SREL describes the relationship of the associated person(s) identified in APID to the study identified in STUDYID.",FINDINGS,SREL,Y,,Y,,,,,,,,
,APFACE,FAGRPID,Group ID,130,C,60,,text,,,Perm,Assigned,Assigned,Sponsor,Identifier,,,UPPERCASE,,,Used to tie together a block of related records in a single domain for a subject.,IDENTIFIERS,__GRPID,Y,,Y,,,,,,,,
,APFACE,FAREFID,Reference ID,140,C,80,,text,,,Perm,,Collected,,Identifier,,,UPPERCASE,,,"Optional internal or external identifier such as lab specimen ID, or UUID for an ECG waveform or a medical image.",IDENTIFIERS,__REFID,Y,,Y,,,,,,,,
,APFACE,FASPID,Sponsor-Defined Identifier,150,C,40,,text,,,Perm,Assigned,Assigned,Sponsor,Identifier,,,UPPERCASE,,Sponsor-defined identifier. Example: pre-printed line identifier on a Concomitant Medications page.,Sponsor-defined identifier. Example: pre-printed line identifier on a Concomitant Medications page.,IDENTIFIERS,__SPID,*,,Y,,,,,,,,
,APFACE,APFACESPID,Sponsor-Defined Identifier,160,C,40,,text,,,Perm,Assigned,Assigned,Sponsor,Identifier,,,UPPERCASE,,"System generated unique identifier, required for Enriched SDTM generation.",,IDENTIFIERS,__SPID,*,,Y,Y,,,,,,,
,APFACE,FALNKID,Link ID,170,C,60,,text,,,Perm,Assigned,Assigned,Sponsor,Identifier,,,UPPERCASE,,,Identifier used to link related records across domains. This may be a one-to- one or a one-to-many relationship. For Example: A single tumor may have multiple measurements/assessments performed at each study visit.,IDENTIFIERS,__LNKID,Y,,Y,,,,,,,,
,APFACE,FALNKGRP,Link Group ID,180,C,60,,text,,,Perm,Assigned,Assigned,Sponsor,Identifier,,,UPPERCASE,,,Identifier used to link related records across domains. This will usually be a many-to-one relationship. For example: Multiple tumor measurements/assessments will contribute to a single response to therapy determination record.,IDENTIFIERS,__LNKGRP,Y,,Y,,,,,,,,
,APFACE,FATESTCD,Findings About Test Short Name,190,C,8,,text,FATESTCD,,Req,Assigned,Assigned,Sponsor,Topic,(FATESTCD),,UPPERCASE,,,"Short name of the measurement, test, or examination described in FATEST. It can be used as a column name when converting a dataset from a vertical to a horizontal format. The value in FATESTCD cannot be longer than 8 characters, nor can it start with a number (e.g. ""1TEST""). FATESTCD cannot contain characters other than letters, numbers, or underscores. Example: SEV, OCCUR.",FINDINGS,__TESTCD,Y,,Y,,,,,,,,
,APFACE,FATEST,Findings About Test Name,200,C,40,,text,FATEST,,Req,Assigned,Assigned,Sponsor,Synonym Qualifier,(FATEST),,MIXEDCASE,,,"Verbatim name of the test or examination used to obtain the measurement or finding. The value in FATEST cannot be longer than 40 characters. Examples: Severity/Intensity, Occurrence",FINDINGS,__TEST,Y,,Y,,,,,,,,
,APFACE,FAOBJ,Object of the Observation,210,C,200,,text,,,Req,Assigned,Assigned,Sponsor,Record Qualifier,,,UPPERCASE,,,"Used to describe the object or focal point of the findings observation that is represented by --TEST. Examples: the term (such as Acne) describing a clinical sign or symptom that is being measured by a Severity test, or an event such as VOMIT where the volume of Vomit is being measured by a VOLUME test.",FINDINGS,__OBJ,Y,,Y,,,,,,,,
,APFACE,FACAT,Category for Findings About,220,C,60,,text,,,Perm,Assigned,Assigned,Sponsor,Grouping Qualifier,*,,UPPERCASE,,,"Used to define a category of related records. Examples: GERD, PRE-SPECIFIED AE.",FINDINGS,__CAT,Y,,Y,,,,,,,,
,APFACE,FASCAT,Subcategory for Findings About,230,C,60,,text,,,Perm,Assigned,Assigned,Sponsor,Grouping Qualifier,*,,UPPERCASE,,,A further categorization of FACAT.,FINDINGS,__SCAT,Y,,Y,,,,,,,,
,APFACE,FAORRES,Result or Finding in Original Units,240,C,200,,text,,,Exp,,,,Result Qualifier,,,UPPERCASE,,,Result of the test as originally received or collected.,FINDINGS,__ORRES,Y,,Y,,FATESTCD,FATEST,,,,,
,APFACE,FAORRESU,Original Units,250,C,40,,text,UNIT,,Perm,,,,Variable Qualifier,(UNIT),,MIXEDCASE,,,Original units in which the data were collected. The unit for FAORRES.,FINDINGS,__ORRESU,,unitcoll,Y,,FATESTCD,FATEST,Y,,,,
,APFACE,FAORNRLO,Normal Range Lower Limit-Original Units,260,C,40,,text,,,Perm,Assigned,Assigned,Sponsor,Variable Qualifier,,,UPPERCASE,,,,FINDINGS,__ORNRLO,Y,,Y,,,,,,,,
,APFACE,FAORNRHI,Normal Range Upper Limit-Original Units,270,C,40,,text,,,Perm,Assigned,Assigned,Sponsor,Variable Qualifier,,,UPPERCASE,,,,FINDINGS,__ORNRHI,Y,,Y,,,,,,,,
,APFACE,FASTRESC,Character Result/Finding in Std Format,280,C,200,,text,,,Exp,Derived,Derived,Sponsor,Result Qualifier,,Finding in Original Units converted to SI unit,UPPERCASE,,,"Contains the result value for all findings, copied or derived from FAORRES in a standard format or standard units. FASTRESC should store all results or findings in character format; if results are numeric, they should also be stored in numeric format in FASTRESN. For example, if a test has results ""NONE"", ""NEG"", and ""NEGATIVE"" in FAORRES and these results effectively have the same meaning; they could be represented in standard format in FASTRESC as ""NEGATIVE"".",FINDINGS,__STRESC,Y,,Y,,,,,,70,sdtme_std_strescnu_v$$,
,APFACE,FASTRESN,Numeric Result/Finding in Standard Units,290,N,8,8.3,float,,,Perm,Derived,Derived,Sponsor,Result Qualifier,,Finding in Original Units converted to SI unit,,,,Used for continuous or numeric results or findings in standard format; copied in numeric format from FASTRESC. FASTRESN should store all numeric test results or findings.,FINDINGS,__STRESN,,,,,,,,,70,sdtme_std_strescnu_v$$,
,APFACE,FASTRESU,Standard Units,300,C,40,,text,UNIT,,Perm,Assigned,Assigned,Sponsor,Variable Qualifier,(UNIT),,MIXEDCASE,,SI unit,Standardized unit used for FASTRESC and FASTRESN.,FINDINGS,__STRESU,,,,,,,,,70,sdtme_std_strescnu_v$$,
,APFACE,FASTNRLO,Normal Range Lower Limit-Standard Units,310,N,8,8.3,float,,,Perm,Derived,Derived,Sponsor,Variable Qualifier,,FAORNRLO converted to standard unit (FASTRESU),,,FAORNRLO converted to standard unit (FASTRESU),,FINDINGS,__STNRLO,,,,,,,,,70,sdtme_std_strescnu_v$$,
,APFACE,FASTNRHI,Normal Range Upper Limit-Standard Units,320,N,8,8.3,float,,,Perm,Derived,Derived,Sponsor,Variable Qualifier,,FAORNRHI converted to standard unit (FASTRESU),,,FAORNRHI converted to standard unit (FASTRESU),,FINDINGS,__STNRHI,,,,,,,,,70,sdtme_std_strescnu_v$$,
,APFACE,FASTNRC,Reference Range for Char Rslt-Std Units,330,C,40,,text,,,Perm,eDT,Collected,Vendor,Variable Qualifier,,,UPPERCASE,,,"For normal range values that are character in ordinal scale or if categorical ranges were supplied (e.g., ""-1 to +1"", ""NEGATIVE TO TRACE"").",FINDINGS,__STNRC,Y,,Y,,,,,,,,
,APFACE,FANRIND,Reference Range Indicator,340,C,20,,text,NRIND,,Perm,Derived,Derived,Sponsor,Variable Qualifier,(NRIND),If FAORRESN > FAORNRHI then FANRIND=HIGH. If FAORRESN < FAORNRLO then FANRIND=LOW. If FAORRESN between FAORNRLO and FAORNRHI then FANRIND=NORMAL.,UPPERCASE,,,"1. Indicates where the value falls with respect to reference range defined by LBORNRLO and LBORNRHI, LBSTNRLO and LBSTNRHI, or by LBSTNRC. Examples: NORMAL, ABNORMAL, HIGH, LOW. 2. Sponsors should specify in the study metadata (Comments column in the define.xml) whether LBNRIND refers to the original or standard reference ranges and results. 3. Should not be used to indicate clinical significance.",FINDINGS,__NRIND,Y,,Y,,,,,,,,
,APFACE,FASTAT,Completion Status,350,C,40,,text,ND,,Perm,Derived,Derived,Sponsor,Record Qualifier,(ND),"Set to NOT DONE if 'ND', 'NA', 'NK' ,' ' have been reported on CRF",UPPERCASE,,,Used to indicate that the measurement was not done. Should be null if a result exists in FAORRES.,FINDINGS,__STAT,Y,,Y,,,,,,,,
,APFACE,FAREASND,Reason Not Performed,360,C,200,,text,,,Perm,Derived,Derived,Sponsor,Record Qualifier,,Set to NOT COLLECTED if FASTAT is set to NOT DONE,UPPERCASE,,,Describes why a question was not answered. Example: subject refused. Used in conjunction with FASTAT when value is NOT DONE.,FINDINGS,__REASND,Y,,Y,,,,,,,,
,APFACE,FANAM,Laboratory/Vendor Name,370,C,40,,text,,,Perm,,,,Record Qualifier,,,UPPERCASE,,,Name or identifier of the laboratory or vendor who provided the test results.,FINDINGS,__NAM,Y,,Y,,,,,,,,
,APFACE,FASPEC,Specimen Material Type,380,C,80,,text,SPECTYPE,,Perm,,,,Record Qualifier,(SPECTYPE),,UPPERCASE,,,"Defines the type of specimen used for a measurement. Examples: SERUM, PLASMA, URINE, DNA, RNA.",FINDINGS,__SPEC,Y,,Y,,,,,,,,
,APFACE,FALOC,Location of the Finding About,390,C,100,,text,LOC,,Perm,,,,Record Qualifier,(LOC),,UPPERCASE,,,Used to specify the location of the clinical evaluation. Example: ARM,FINDINGS,__LOC,Y,,Y,,,,,,,,
,APFACE,FALAT,Laterality,400,C,40,,text,LAT,,Perm,,,,Variable Qualifier,(LAT),,UPPERCASE,,,"Qualifier for anatomical location or specimen further detailing laterality. Examples: RIGHT, LEFT, BILATERAL",FINDINGS,__LAT,Y,,Y,,,,,,,,
,APFACE,FAMETHOD,Method of Test or Examination,410,C,80,,text,METHOD,,Perm,eDT,Collected,Vendor,Record Qualifier,(METHOD),,UPPERCASE,,,,FINDINGS,__METHOD,Y,,Y,,,,,,,,
,APFACE,FAANMETH,Analysis Method,420,C,80,,text,,,Perm,,,,Record Qualifier,*,,UPPERCASE,,,Analysis method applied to obtain a summarized result. Analysis method describes the method of secondary processing applied to a complex observation result (e.g. an image or a genetic sequence).,FINDINGS,__ANMETH,Y,,Y,,,,,,,,
,APFACE,FALOBXFL,Last Observation Before Exposure Flag,430,C,1,,text,NY,,Perm,Derived,Derived,Sponsor,Record Qualifier,(NY),Set to 'Y' when the record contains the last non-missing value prior to RFXSTDTC.,UPPERCASE,,,"Operationally-derived indicator used to identify the last non-missing value prior to RFXSTDTC. The value should be ""Y"" or null.",FINDINGS,__LOBXFL,,,,,,,,,,,Y
,APFACE,FABLFL,Baseline Flag,440,C,2,,text,NY,,Perm,Derived,Derived,Sponsor,Record Qualifier,(NY),Baseline flag set to Y when the assessment is collected at the visit marked as baseline in the trial flowchart,UPPERCASE,,,"Indicator used to identify a baseline value. The value should be ""Y"" or null.",FINDINGS,__BLFL,,,,,,,,,20,sdtme_std_blfl_v$$,Y
,APFACE,FAEVAL,Evaluator,450,C,40,,text,EVAL,,Perm,,,,Record Qualifier,(EVAL),,UPPERCASE,,,"Role of the person who provided the evaluation. Used only for results that are subjective (e.g., assigned by a person or a group). Should be null for records that contain collected or derived data. Examples: INVESTIGATOR, ADJUDICATION COMMITTEE, VENDOR.",FINDINGS,__EVAL,Y,,Y,,,,,,,,
,APFACE,FAEVALID,Evaluator Identifier,460,C,40,,text,MEDEVAL,,Perm,,,,Variable Qualifier,(MEDEVAL),,UPPERCASE,,,Used to distinguish multiple evaluators with the same role recorded in --EVAL. Examples: RADIOLOGIST1 or RADIOLOGIST2,FINDINGS,__EVALID,Y,,Y,,,,,,,,
,APFACE,FAREPNUM,Repetition Number,470,N,8,,integer,,,Perm,,,,Record Qualifier,,,,,,"The incidence number of a test that is repeated within a given timeframe for the same test. The level of granularity can vary, e.g., within a time point or within a visit. For example, multiple measurements of blood pressure or multiple analyses of a sample.",FINDINGS,__REPNUM,Y,,Y,,,,,,,,
,APFACE,ETCD,Element Code,480,C,8,,text,,,Req,Assigned,Assigned,Sponsor,Record Qualifier,*,,UPPERCASE,,Set based on the SE domain,"ETCD (the companion to ELEMENT) is limited to 8 characters and does not have special character restrictions. These values should be short for ease of use in programming, but it is not expected that ETCD will need to serve as a variable name.",NN DEFINED,ETCD,,,,,,,,,90,sdtme_std_etcd_v$$,
,APFACE,ELEMENT,Description of Element,490,C,40,,text,,,Req,Protocol,Protocol,Sponsor,Record Qualifier,*,,UPPERCASE,,Set based on the SE domain,The name of the Element.,NN DEFINED,ELEMENT,,,,,,,,,90,sdtme_std_etcd_v$$,
,APFACE,VISITNUM,Visit Number,500,N,8,9.3,float,,,Exp,Protocol,Protocol,Sponsor,Timing,,,,,,"1. Clinical encounter number. 2. Numeric version of VISIT, used for sorting.",TIMING,VISITNUM,Y,,Y,,,,,,,,
,APFACE,VISIT,Visit Name,510,C,40,,text,,,Perm,Protocol,Protocol,Sponsor,Timing,,,UPPERCASE,,,1. Protocol-defined description of clinical encounter. 2. May be used in addition to VISITNUM and/or VISITDY.,TIMING,VISIT,,,,,,,,,30,sdtme_std_visit_v$$,
,APFACE,VISITDY,Planned Study Day of Visit,520,N,8,,integer,,,Perm,Assigned,Assigned,Sponsor,Timing,,,,,Based on TV.VISITDY,Planned study day of the visit based upon RFSTDTC in Demographics.,TIMING,VISITDY,,,,,,,,,40,sdtme_std_visitdy_v$$,
,APFACE,TAETORD,Planned Order of Element within Arm,530,N,8,,integer,,,Perm,Protocol,Protocol,Sponsor,Timing,,,,,,Number that gives the planned order of the Element within the Arm for the element in which the assessment was made,TIMING,TAETORD,,,,,,,,,,,
,APFACE,EPOCH,Epoch,540,C,40,,text,EPOCH,,Perm,Protocol,Protocol,Sponsor,Timing,(EPOCH),,UPPERCASE,,Set based on the SE domain,"Epoch associated with the start date/time of the observation, or the date/time of collection if start date/time is not collected. (See Section 3.2.2).",TIMING,EPOCH,,,,,,,,,80,sdtme_std_epoch_v$$,
,APFACE,FADTC,Date/Time of Collection,550,C,64,,datetime,,,Perm,,Collected,,Timing,ISO 8601,,UPPERCASE DATETIME,,,,TIMING,__DTC,Y,,Y,,,,,,,,
,APFACE,FASTDTC,Start Date/Time of Observation,560,C,64,,datetime,,,Perm,,,,Timing,ISO 8601,,UPPERCASE DATETIME,,,Start date/time of an observation.,NN DEFINED,__STDTC,Y,,Y,,,,,,,,
,APFACE,FAENDTC,End Date/Time of Observation,570,C,64,,datetime,,,Perm,,Collected,,Timing,ISO 8601,,UPPERCASE DATETIME,,,End date/time of the observation represented in IS0 8601 character format.,TIMING,__ENDTC,Y,,Y,,,,,,,,
,APFACE,FADY,Study Day of Collection,580,N,8,,integer,,,Perm,Derived,Derived,Sponsor,Timing,,If FADTC GE RFSTDTC then FADY=FADTC-RFSTDTC+1; otherwise FADY=FADTC-RFSTDTC.,,,,"1. Study day of collection, measured as integer days. 2. Algorithm for calculations must be relative to the sponsor-defined RFSTDTC variable in Demographics. This formula should be consistent across the submission.",TIMING,__DY,,,,,,,,,10,sdtme_std_dy_v$$,
,APFACE,FASTDY,Study Day of Start of Observation,590,N,8,,integer,,,Perm,Derived,Derived,Sponsor,Timing,,If FASTDTC GE RFSTDTC then FASTDY=FASTDTC-RFSTDTC+1; otherwise FASTDY=FASTDTC-RFSTDTC.,,,,Actual study day of start of observation expressed in integer days relative to the sponsor-defined RFSTDTC in Demographics.,TIMING,__STDY,,,,,,,,,,,
,APFACE,FAENDY,Study Day of End of Observation,600,N,8,,integer,,,Perm,Derived,Derived,Sponsor,Timing,,If FAENDTC GE RFSTDTC then FAENDY=FAENDTC-RFSTDTC+1; otherwise FAENDY=FAENDTC-RFSTDTC.,,,,Actual study day of end of observation expressed in integer days relative to the sponsor-defined RFSTDTC in Demographics.,TIMING,__ENDY,,,,,,,,,10,sdtme_std_dy_v$$,
,APFACE,FATPT,Planned Time Point Name,610,C,80,,text,,,Perm,,,,Timing,,,UPPERCASE,,,"Text description of time when a measurement or observation should be taken as defined in the protocol. This may be represented as an elapsed time relative to a fixed reference point, such as time of last dose. See --TPTNUM and -- TPTREF.",TIMING,__TPT,Y,,Y,,,,,,110,sdtme_std_tpt_v$$,
,APFACE,FATPTNUM,Planned Time Point Number,620,N,8,8.1,float,,,Perm,,,,Timing,,,,,,,TIMING,__TPTNUM,Y,,Y,,,,,,110,sdtme_std_tpt_v$$,
,APFACE,FAELTM,Planned Elapsed Time from Time Point Ref,630,C,64,,durationDatetime,,,Perm,,,,Timing,ISO 8601,,UPPERCASE DURATION,,,"Planned Elapsed time in ISO 8601 character format relative to a planned fixed reference (--TPTREF) such as ""Previous Dose"" or ""Previous Meal"". This variable is useful where there are repetitive measures. Not a clock time or a date/time variable, but an interval, represented as ISO duration.",TIMING,__ELTM,Y,,Y,,,,,,,,
,APFACE,FATPTREF,Time Point Reference,640,C,80,,text,,,Perm,,,,Timing,,,UPPERCASE,,,,TIMING,__TPTREF,Y,,Y,,,,,,110,sdtme_std_tpt_v$$,
,APFACE,FARFTDTC,Date/Time of Reference Time Point,650,C,64,,datetime,,,Perm,,,,Timing,ISO 8601,,UPPERCASE DATETIME,,,Date/time for a fixed reference time point defined by --TPTREF in ISO 8601 character format.,TIMING,__RFTDTC,Y,,Y,,,,,,,,
,APHO,TOPIC_CD,CDW Topic Code,10,C,80,,text,,,Perm,,,,Topic,,,,,,,NN DEFINED,TOPIC_CD,,topiccd,Y,Y,,,,,,,
Y,APHO,STUDYID,Study Identifier,20,C,40,,text,,,Req,Protocol,Protocol,Sponsor,Identifier,,,UPPERCASE,,,Unique identifier for a study.,IDENTIFIERS,STUDYID,*,,Y,,,,,,,,
Y,APHO,DOMAIN,Domain Abbreviation,30,C,8,,text,DOMAIN,,Req,Assigned,Assigned,Sponsor,Identifier,APHO,,UPPERCASE,,,"Four-character abbreviation for the domain, AP--.",IDENTIFIERS,DOMAIN,*,,Y,,,,,,,,
,APHO,USUBJID,Unique Subject Identifier,40,C,60,,text,,,Req,Assigned,Assigned,Sponsor,Identifier,,,UPPERCASE,,Concatenation of STUDYID and DM.SUBJID (This is a variable for internal system use),Identifier used to uniquely identify a subject across all studies for all applications or submissions involving the product.,NN DEFINED,USUBJID,*,,Y,Y,,,,,,,
Y,APHO,APID,Associated Persons Identifier,50,C,60,,text,,,Req,Assigned,Assigned,Sponsor,Identifier,,,UPPERCASE,,,"Identifier for a single associated person, a group of associated persons, or a pool of associated persons. If APID identifies a pool, POOLDEF records must exist for each associated person.",IDENTIFIERS,APID,Y,,Y,,,,,,,,
Y,APHO,HOSEQ,Sequence Number,60,N,8,,integer,,,Req,Assigned,Assigned,Sponsor,Identifier,,,,,,Sequence number to ensure uniqueness of records within a domain for associated persons. Unique within APID within the domain.,IDENTIFIERS,__SEQ,*,,Y,,,,,,,,
Y,APHO,RSUBJID,Related Subject,70,C,60,,text,,,Exp,CRF,Collected,Investigator,Record Qualifier,,,UPPERCASE,,,Identifier for a related study subject or pool of study subjects. The subject(s) may be human or animal. RSUBJID will be populated with the USUBJID of the related subject or the POOLID of the related pool. RSUBJID will be null for data about associated persons who are related to the study but not to any of the study subjects.,IDENTIFIERS,RSUBJID,Y,,Y,,,,,,,,
Y,APHO,RDEVID,Related Device,80,C,40,,text,,,Perm,CRF,Collected,Investigator,Record Qualifier,,,UPPERCASE,,,Identifier for a related device. RDEVID will be populated with the SPDEVID of the related device.,IDENTIFIERS,RDEVID,Y,,Y,,,,,,,,
Y,APHO,SREL,"Subject, Device, or Study Relationship",90,C,40,,text,RELSUB,,Req,CRF,Collected,Investigator,Record Qualifier,(RELSUB),,UPPERCASE,,,"If RSUBJID is populated, describes the relationship of the associated person(s) identified in APID to the subject or pool identified in RSUBJID. If RDEVID is populated, describes the relationship of the associated person(s) identified in APID to the device identified in RDEVID. If RSUBJID and RDEVID are null, SREL describes the relationship of the associated person(s) identified in APID to the study identified in STUDYID.",IDENTIFIERS,SREL,Y,,Y,,,,,,,,
,APHO,HOGRPID,Group ID,100,C,60,,text,,,Perm,Assigned,Assigned,Sponsor,Identifier,,,UPPERCASE,,,Used to tie together a block of related records in a single domain for a subject.,IDENTIFIERS,__GRPID,Y,,Y,,,,,,,,
,APHO,HOREFID,Reference ID,110,C,80,,text,,,Perm,,Collected,,Identifier,,,UPPERCASE,,,Internal or external healthcare encounter identifier.,IDENTIFIERS,__REFID,Y,,Y,,,,,,,,
,APHO,HOSPID,Sponsor-Defined Identifier,120,C,40,,text,,,Perm,Assigned,Assigned,Sponsor,Identifier,,,UPPERCASE,,Sponsor-defined identifier. Example: pre-printed line identifier on a Concomitant Medications page.,Sponsor-defined identifier. Example: pre-printed line identifier on a Concomitant Medications page.,IDENTIFIERS,__SPID,*,,Y,,,,,,,,
,APHO,APHOSPID,Sponsor-Defined Identifier,130,C,40,,text,,,Perm,Assigned,Assigned,Sponsor,Identifier,,,UPPERCASE,,"System generated unique identifier, required for Enriched SDTM generation.",,IDENTIFIERS,__SPID,*,,Y,Y,,,,,,,
,APHO,HOLNKID,Link ID,140,C,60,,text,,,Perm,Assigned,Assigned,Sponsor,Identifier,,,UPPERCASE,,,Identifier used to link related records across domains. This may be a one-to- one or a one-to-many relationship. For Example: A single tumor may have multiple measurements/assessments performed at each study visit.,IDENTIFIERS,__LNKID,Y,,Y,,,,,,,,
,APHO,HOLNKGRP,Link Group ID,150,C,60,,text,,,Perm,Assigned,Assigned,Sponsor,Identifier,,,UPPERCASE,,,Identifier used to link related records across domains. This will usually be a many-to-one relationship. For example: Multiple tumor measurements/assessments will contribute to a single response to therapy determination record.,IDENTIFIERS,__LNKGRP,Y,,Y,,,,,,,,
,APHO,HOTERM,Healthcare Encounter Term,160,C,200,,text,,,Req,,Collected,,Topic,,,UPPERCASE,,,Verbatim or preprinted CRF term for the healthcare encounter.,EVENTS,__TERM,Y,,Y,,,,,,,,
,APHO,HODECOD,Dictionary-Derived Term,170,C,200,,text,,,Perm,Assigned,Assigned,Sponsor,Synonym Qualifier,*,,MIXEDCASE,,,Dictionary or sponsor-defined derived text description of HOTERM or the modified topic variable (HOMODIFY).,EVENTS,__DECOD,Y,,Y,,,,,,,,
,APHO,HOCAT,Category for Healthcare Encounter,180,C,60,,text,HOCAT,,Perm,Assigned,Assigned,Sponsor,Grouping Qualifier,*,,UPPERCASE,,,Used to define a category of topic-related values.,EVENTS,__CAT,Y,,Y,,,,,,,,
,APHO,HOSCAT,Subcategory for Healthcare Encounter,190,C,60,,text,,,Perm,Assigned,Assigned,Sponsor,Grouping Qualifier,*,,UPPERCASE,,,A further categorization of HOCAT values.,EVENTS,__SCAT,Y,,Y,,,,,,,,
,APHO,HOPRESP,Pre-Specified Healthcare Encounter,200,C,2,,text,NY,,Perm,Assigned,Assigned,Sponsor,Variable Qualifier,(NY),,UPPERCASE,,,"A value of ""Y"" indicates that this healthcare encounter event was pre- specified on the CRF. Values are null for spontaneously reported events (i.e., those collected as free-text verbatim terms)",EVENTS,__PRESP,Y,,Y,,,,,,,,Y
,APHO,HOOCCUR,Healthcare Encounter Occurrence,210,C,2,,text,NY,,Perm,,,,Record Qualifier,(NY),,UPPERCASE,,,Used when the occurrence of specific healthcare encounters is solicited to indicate whether or not an encounter occurred. Values are null for spontaneously reported events.,EVENTS,__OCCUR,Y,,Y,,,,,,,,Y|N
,APHO,HOSTAT,Completion Status,220,C,40,,text,ND,,Perm,Derived,Derived,Sponsor,Record Qualifier,(ND),"Set to NOT DONE if 'ND', 'NA', 'NK' ,' ' have been reported on CRF",UPPERCASE,,,The status indicates that the pre-specified question was not answered.,EVENTS,__STAT,Y,,Y,,,,,,,,
,APHO,HOREASND,Reason Healthcare Encounter Not Done,230,C,200,,text,,,Perm,,,,Record Qualifier,,,UPPERCASE,,,Describes the reason data for a pre-specified event was not collected. Used in conjunction with HOSTAT when value is NOT DONE.,EVENTS,__REASND,Y,,Y,,,,,,,,
,APHO,ETCD,Element Code,240,C,8,,text,,,Req,Assigned,Assigned,Sponsor,Record Qualifier,*,,UPPERCASE,,Set based on the SE domain,"ETCD (the companion to ELEMENT) is limited to 8 characters and does not have special character restrictions. These values should be short for ease of use in programming, but it is not expected that ETCD will need to serve as a variable name.",NN DEFINED,ETCD,,,,,,,,,30,sdtme_std_etcd_v$$,
,APHO,ELEMENT,Description of Element,250,C,40,,text,,,Req,Protocol,Protocol,Sponsor,Record Qualifier,*,,UPPERCASE,,Set based on the SE domain,The name of the Element.,NN DEFINED,ELEMENT,,,,,,,,,30,sdtme_std_etcd_v$$,
,APHO,TAETORD,Planned Order of Element within Arm,260,N,8,,integer,,,Perm,Protocol,Protocol,Sponsor,Timing,,,,,,Number that gives the planned order of the Element within the Arm for the element in which the assessment was made,TIMING,TAETORD,,,,,,,,,,,
,APHO,EPOCH,Epoch,270,C,40,,text,EPOCH,,Perm,Protocol,Protocol,Sponsor,Timing,(EPOCH),,UPPERCASE,,Set based on the SE domain,"Epoch associated with the start date/time of the observation, or the date/time of collection if start date/time is not collected. (See Section 3.2.2).",TIMING,EPOCH,,,,,,,,,20,sdtme_std_epoch_v$$,
,APHO,HODTC,Date/Time of Event Collection,280,C,64,,datetime,,,Perm,,Collected,,Timing,ISO 8601,,UPPERCASE DATETIME,,,Collection date and time of the healthcare encounter.,TIMING,__DTC,Y,,Y,,,,,,,,
,APHO,HOSTDTC,Start Date/Time of Healthcare Encounter,290,C,64,,datetime,,,Exp,,Collected,,Timing,ISO 8601,,UPPERCASE DATETIME,,,"Start date/time of the healthcare encounter (e.g., date of admission).",TIMING,__STDTC,Y,,Y,,,,,,,,
,APHO,HOENDTC,End Date/Time of Healthcare Encounter,300,C,64,,datetime,,,Perm,,Collected,,Timing,ISO 8601,,UPPERCASE DATETIME,,,End date/time of the healthcare encounter (date of discharge).,TIMING,__ENDTC,Y,,Y,,,,,,,,
,APHO,HODY,Study Day of Event Collection,310,N,8,,integer,,,Perm,Derived,Derived,Sponsor,Timing,,If HODTC GE RFSTDTC then HODY=HODTC-RFSTDTC+1; otherwise HODY=HODTC-RFSTDTC.,,,,Study day of event collection relative to the sponsor-defined RFSTDTC.,TIMING,__DY,,,,,,,,,10,sdtme_std_dy_v$$,
,APHO,HOSTDY,Study Day of Start of Encounter,320,N,8,,integer,,,Perm,Derived,Derived,Sponsor,Timing,,If HOSTDTC GE RFSTDTC then HOSTDY=HOSTDTC-RFSTDTC+1; otherwise HOSTDY=HOSTDTC-RFSTDTC.,,,,Study day of the start of the healthcare encounter relative to the sponsor-defined RFSTDTC.,TIMING,__STDY,,,,,,,,,10,sdtme_std_dy_v$$,
,APHO,HOENDY,Study Day of End of Healthcare Encounter,330,N,8,,integer,,,Perm,Derived,Derived,Sponsor,Timing,,If HOENDTC GE RFSTDTC then HOENDY=HOENDTC-RFSTDTC+1; otherwise HOENDY=HOENDTC-RFSTDTC.,,,,Study day of the end of the healthcare encounter relative to the sponsor-defined RFSTDTC.,TIMING,__ENDY,,,,,,,,,10,sdtme_std_dy_v$$,
,APHO,HODUR,Duration of Healthcare Encounter,340,C,64,,durationDatetime,,,Perm,,,,Timing,ISO 8601,,UPPERCASE DURATION,,,"Collected duration of the healthcare encounter. Used only if collected on the CRF and not derived from the start and end date/times. Example: P1DT2H (for 1 day, 2 hours).",TIMING,__DUR,Y,,Y,,,,,,,,
,APHO,HOSTRTPT,Start Relative to Reference Time Point,350,C,40,,text,STENRF,,Perm,,,,Timing,(STENRF),,UPPERCASE,,,Identifies the start of the observation as being before or after the sponsor-defined reference time point defined by variable --STTPT.,TIMING,__STRTPT,Y,,Y,,,,,,,,BEFORE|COINCIDENT|AFTER|U
,APHO,HOSTTPT,Start Reference Time Point,360,C,40,,text,,,Perm,,,,Timing,,,UPPERCASE,,,"Description or date/time in ISO 8601 character format of the sponsor- defined reference point referred to by STRTPT. Examples: ""2003-12- 15"" or ""VISIT 1"".",TIMING,__STTPT,Y,,Y,,,,,,,,
,APHO,HOENRTPT,End Relative to Reference Time Point,370,C,40,,text,STENRF,,Perm,,,,Timing,(STENRF),,UPPERCASE,,,Identifies the end of the event as being before or after the reference time point defined by variable HOENTPT.,TIMING,__ENRTPT,Y,,Y,,,,,,,,BEFORE|COINCIDENT|AFTER|ONGOING|U
,APHO,HOENTPT,End Reference Time Point,380,C,40,,text,,,Perm,,,,Timing,,,UPPERCASE,,,"Description or date/time in ISO 8601 character format of the reference point referred to by HOENRTPT. Examples: ""2003-12-25"" or ""VISIT 2"".",TIMING,__ENTPT,Y,,Y,,,,,,,,
,APMH,CDMS_SUB_EVT_NUM,CDMS Repeat Sequence Number,10,N,8,,integer,,,Perm,,,,Record Qualifier,,,,,,,NN DEFINED,CDMS_SUB_EVT_NUM,,subevnum,Y,Y,,,,,,,
,APMH,TOPIC_CD,CDW Topic Code,20,C,80,,text,,,Perm,,,,Topic,,,,,,,NN DEFINED,TOPIC_CD,,topiccd,Y,Y,,,,,,,
Y,APMH,STUDYID,Study Identifier,30,C,40,,text,,,Req,Protocol,Protocol,Sponsor,Identifier,,,UPPERCASE,,,Unique identifier for a study.,IDENTIFIERS,STUDYID,*,,Y,,,,,,,,
Y,APMH,DOMAIN,Domain Abbreviation,40,C,8,,text,DOMAIN,,Req,Assigned,Assigned,Sponsor,Identifier,APMH,,UPPERCASE,,,"Four-character abbreviation for the domain, AP--.",IDENTIFIERS,DOMAIN,*,,Y,,,,,,,,
,APMH,USUBJID,Unique Subject Identifier,50,C,60,,text,,,Req,Assigned,Assigned,Sponsor,Identifier,,,UPPERCASE,,Concatenation of STUDYID and DM.SUBJID (This is a variable for internal system use),Identifier used to uniquely identify a subject across all studies for all applications or submissions involving the product.,NN DEFINED,USUBJID,*,,Y,Y,,,,,,,
Y,APMH,APID,Associated Persons Identifier,60,C,60,,text,,,Req,Assigned,Assigned,Sponsor,Identifier,,,UPPERCASE,,,"Identifier for a single associated person, a group of associated persons, or a pool of associated persons. If APID identifies a pool, POOLDEF records must exist for each associated person.",IDENTIFIERS,APID,Y,,Y,,,,,,,,
Y,APMH,MHSEQ,Sequence Number,70,N,8,,integer,,,Req,Assigned,Assigned,Sponsor,Identifier,,,,,,Sequence number to ensure uniqueness of records within a domain for associated persons. Unique within APID within the domain.,IDENTIFIERS,__SEQ,*,,Y,,,,,,,,
Y,APMH,RSUBJID,Related Subject,80,C,60,,text,,,Exp,CRF,Collected,Investigator,Record Qualifier,,,UPPERCASE,,,Identifier for a related study subject or pool of study subjects. The subject(s) may be human or animal. RSUBJID will be populated with the USUBJID of the related subject or the POOLID of the related pool. RSUBJID will be null for data about associated persons who are related to the study but not to any of the study subjects.,IDENTIFIERS,RSUBJID,Y,,Y,,,,,,,,
Y,APMH,RDEVID,Related Device,90,C,40,,text,,,Perm,CRF,Collected,Investigator,Record Qualifier,,,UPPERCASE,,,Identifier for a related device. RDEVID will be populated with the SPDEVID of the related device.,IDENTIFIERS,RDEVID,Y,,Y,,,,,,,,
Y,APMH,SREL,"Subject, Device, or Study Relationship",100,C,40,,text,RELSUB,,Req,CRF,Collected,Investigator,Record Qualifier,(RELSUB),,UPPERCASE,,,"If RSUBJID is populated, describes the relationship of the associated person(s) identified in APID to the subject or pool identified in RSUBJID. If RDEVID is populated, describes the relationship of the associated person(s) identified in APID to the device identified in RDEVID. If RSUBJID and RDEVID are null, SREL describes the relationship of the associated person(s) identified in APID to the study identified in STUDYID.",IDENTIFIERS,SREL,Y,,Y,,,,,,,,
,APMH,MHGRPID,Group ID,110,C,60,,text,,,Perm,Assigned,Assigned,Sponsor,Identifier,,,UPPERCASE,,,Used to tie together a block of related records in a single domain for a subject.,IDENTIFIERS,__GRPID,Y,,Y,,,,,,,,
,APMH,MHREFID,Reference ID,120,C,80,,text,,,Perm,,Collected,,Identifier,,,UPPERCASE,,,Internal or external medical history identifier.,IDENTIFIERS,__REFID,Y,,Y,,,,,,,,
,APMH,MHSPID,Sponsor-Defined Identifier,130,C,40,,text,,,Perm,Assigned,Assigned,Sponsor,Identifier,,,UPPERCASE,,Sponsor-defined identifier. Example: pre-printed line identifier on a Concomitant Medications page.,Sponsor-defined identifier. Example: pre-printed line identifier on a Concomitant Medications page.,IDENTIFIERS,__SPID,*,,Y,,,,,,,,
,APMH,APMHSPID,Sponsor-Defined Identifier,140,C,40,,text,,,Perm,Assigned,Assigned,Sponsor,Identifier,,,UPPERCASE,,"System generated unique identifier, required for Enriched SDTM generation.",Sponsor-defined reference number. Perhaps pre-printed on the CRF as an explicit line identifier or defined in the sponsor's operational database. Example: Line number on a Medical History page.,IDENTIFIERS,__SPID,*,,Y,Y,,,,,,,
,APMH,MHLNKID,Link ID,150,C,60,,text,,,Perm,Assigned,Assigned,Sponsor,Identifier,,,UPPERCASE,,,,IDENTIFIERS,__LNKID,Y,,Y,,,,,,,,
,APMH,MHLNKGRP,Link Group ID,160,C,60,,text,,,Perm,Assigned,Assigned,Sponsor,Identifier,,,UPPERCASE,,,,IDENTIFIERS,__LNKGRP,Y,,Y,,,,,,,,
,APMH,MHTERM,Reported Term for the Medical History,170,C,200,,text,,,Req,,Collected,,Topic,,,UPPERCASE,,,Verbatim or preprinted CRF term for the medical condition or event.,EVENTS,__TERM,Y,,Y,,,,,,,,
,APMH,MHMODIFY,Modified Reported Term,180,C,200,,text,,,Perm,,Collected,,Synonym Qualifier,,,UPPERCASE,,,"If MHTERM is modified to facilitate coding, then MHMODIFY will contain the modified text.",EVENTS,__MODIFY,Y,,Y,,,,,,,,
,APMH,MHLLT,Lowest Level Term,190,C,200,,text,,,Exp,Assigned,Assigned,Sponsor,Variable Qualifier,MedDRA,,MIXEDCASE,,,,EVENTS,__LLT,,,,,,,,,40,sdtme_std_cd_v$$,
,APMH,MHLLTCD,Lowest Level Term Code,200,N,8,,integer,,,Exp,Assigned,Assigned,Sponsor,Variable Qualifier,MedDRA,,,,,Dictionary-derived code for the Lowest Level Term.,EVENTS,__LLTCD,Y,,Y,,,,,,,,
,APMH,MHDECOD,Dictionary-Derived Term,210,C,200,,text,,,Perm,Assigned,Assigned,Sponsor,Synonym Qualifier,*,,MIXEDCASE,,,Dictionary-derived text description of MHTERM or MHMODIFY. Equivalent to the Preferred Term (PT in MedDRA). The sponsor is expected to provide the dictionary name and version used to map the terms utilizing the define.xml external codelist attributes.,EVENTS,__DECOD,,,,,,,,,40,sdtme_std_cd_v$$,
,APMH,MHPTCD,Preferred Term Code,220,N,8,,integer,,,Exp,Assigned,Assigned,Sponsor,Variable Qualifier,MedDRA,,,,,,EVENTS,__PTCD,,,,,,,,,40,sdtme_std_cd_v$$,
,APMH,MHHLT,High Level Term,230,C,200,,text,,,Exp,Assigned,Assigned,Sponsor,Variable Qualifier,MedDRA,,MIXEDCASE,,,,EVENTS,__HLT,,,,,,,,,40,sdtme_std_cd_v$$,
,APMH,MHHLTCD,High Level Term Code,240,N,8,,integer,,,Exp,Assigned,Assigned,Sponsor,Variable Qualifier,MedDRA,,,,,,EVENTS,__HLTCD,,,,,,,,,40,sdtme_std_cd_v$$,
,APMH,MHHLGT,High Level Group Term,250,C,200,,text,,,Exp,Assigned,Assigned,Sponsor,Variable Qualifier,MedDRA,,MIXEDCASE,,,,EVENTS,__HLGT,,,,,,,,,40,sdtme_std_cd_v$$,
,APMH,MHHLGTCD,High Level Group Term Code,260,N,8,,integer,,,Exp,Assigned,Assigned,Sponsor,Variable Qualifier,MedDRA,,,,,,EVENTS,__HLGTCD,,,,,,,,,40,sdtme_std_cd_v$$,
,APMH,MHEVDTYP,Medical History Event Date Type,270,C,80,,text,MHEDTTYP,,Perm,,,,Variable Qualifier,(MHEDTTYP),,UPPERCASE,,,"Specifies the aspect of the medical condition or event by which MHSTDTC and/or the MHENDTC is defined. Examples: ""DIAGNOSIS"", ""SYMPTOMS"",
""RELAPSE"", ""INFECTION"".",MH,MHEVDTYP,Y,,Y,,,,,,,,
,APMH,MHCAT,Category for Medical History,280,C,60,,text,MHCAT,,Perm,Assigned,Assigned,Sponsor,Grouping Qualifier,*,,UPPERCASE,,,Used to define a category of related records. Examples: CARDIAC or GENERAL,EVENTS,__CAT,Y,,Y,,,,,,,,
,APMH,MHSCAT,Subcategory for Medical History,290,C,60,,text,MHSCAT,,Perm,Assigned,Assigned,Sponsor,Grouping Qualifier,*,,UPPERCASE,,,A further categorization of the condition or event.,EVENTS,__SCAT,Y,,Y,,,,,,,,
,APMH,MHPRESP,Medical History Event Pre-Specified,300,C,2,,text,NY,,Perm,Assigned,Assigned,Sponsor,Variable Qualifier,(NY),,UPPERCASE,,,"A value of ""Y"" indicates that this medical history event was pre-specified on the CRF. Values are null for spontaneously reported events (i.e., those collected as free- text verbatim terms)",EVENTS,__PRESP,Y,,Y,,,,,,,,Y
,APMH,MHOCCUR,Medical History Occurrence,310,C,2,,text,NY,,Perm,,,,Record Qualifier,(NY),,UPPERCASE,,,Used when the occurrence of specific medical history conditions is solicited to indicate whether or not (Y/N) a medical condition (MHTERM) had ever occurred. Values are null for spontaneously reported events.,EVENTS,__OCCUR,Y,,Y,,,,,,,,Y|N
,APMH,MHSTAT,Completion Status,320,C,40,,text,ND,,Perm,Derived,Derived,Sponsor,Record Qualifier,(ND),"Set to NOT DONE if 'ND', 'NA', 'NK' ,' ' have been reported on CRF",UPPERCASE,,,The status indicates that the pre-specified question was not asked/answered.,EVENTS,__STAT,Y,,Y,,,,,,,,
,APMH,MHREASND,Reason Medical History Not Collected,330,C,200,,text,,,Perm,,,,Record Qualifier,,,UPPERCASE,,,Reason the question was not asked/answered or an intervention did not occur. Used in conjunction with negation indicators --STAT of 'NOT DONE' or --OCCUR of 'N',EVENTS,__REASND,Y,,Y,,,,,,,,
,APMH,MHBODSYS,Body System or Organ Class,340,C,200,,text,,,Perm,Assigned,Assigned,Sponsor,Record Qualifier,MedDRA,,MIXEDCASE,,,"Dictionary-derived. Body system or organ class that is involved in an event or measurement from a standard hierarchy (e.g., MedDRA). When using a multi-axial dictionary such as MedDRA, this should contain the SOC used for the sponsor's analyses and summary tables which may not necessarily be the primary SOC.",EVENTS,__BODSYS,,,,,,,,,40,sdtme_std_cd_v$$,
,APMH,MHBDSYCD,Body System or Organ Class Code,350,N,8,,integer,,,Perm,Assigned,Assigned,Sponsor,Variable Qualifier,MedDRA,,,,,,EVENTS,__BDSYCD,,,,,,,,,40,sdtme_std_cd_v$$,
,APMH,MHSOC,Primary System Organ Class,360,C,200,,text,,,Perm,Assigned,Assigned,Sponsor,Variable Qualifier,MedDRA,,MIXEDCASE,,,,EVENTS,__SOC,,,,,,,,,40,sdtme_std_cd_v$$,
,APMH,MHSOCCD,Primary System Organ Class Code,370,N,8,,integer,,,Perm,Assigned,Assigned,Sponsor,Variable Qualifier,MedDRA,,,,,,EVENTS,__SOCCD,,,,,,,,,40,sdtme_std_cd_v$$,
,APMH,MHLOC,Location of Event,380,C,100,,text,LOC,,Perm,,,,Record Qualifier,(LOC),,UPPERCASE,,,,EVENTS,__LOC,Y,,Y,,,,,,,,
,APMH,MHLAT,Laterality,390,C,40,,text,LAT,,Perm,,,,Variable Qualifier,(LAT),,UPPERCASE,,,"Qualifier for anatomical location further detailing laterality. Examples: RIGHT, LEFT, BILATERAL",EVENTS,__LAT,Y,,Y,,,,,,,,
,APMH,MHSEV,Severity/Intensity,400,C,80,,text,,,Perm,,,,Record Qualifier,*,,UPPERCASE,,,,EVENTS,__SEV,Y,,Y,,,,,,,,
,APMH,MHSER,Serious Event,410,C,2,,text,NY,,Perm,,,,Record Qualifier,(NY),,UPPERCASE,,,,EVENTS,__SER,Y,,Y,,,,,,,,
,APMH,MHPATT,Pattern of Event,420,C,80,,text,,,Perm,,,,Record Qualifier,*,,UPPERCASE,,,,EVENTS,__PATT,,,,,,,,,,,
,APMH,MHOUT,Outcome of Event,430,C,40,,text,,,Perm,,,,Record Qualifier,*,,UPPERCASE,,,Description of the outcome of an event.,EVENTS,__OUT,Y,,Y,,,,,,,,
,APMH,MHSCAN,Involves Cancer,440,C,2,,text,NY,,Perm,,,,Record Qualifier,(NY),,UPPERCASE,,,Was the serious event associated with the development of cancer?,EVENTS,__SCAN,,,,,,,,,,,
,APMH,MHSCONG,Congenital Anomaly or Birth Defect,450,C,2,,text,NY,,Perm,,,,Record Qualifier,(NY),,UPPERCASE,,,Was the serious event associated with congenital anomaly or birth defect?,EVENTS,__SCONG,Y,,Y,,,,,,,,
,APMH,MHSDISAB,Persist or Signif Disability/Incapacity,460,C,2,,text,NY,,Perm,,,,Record Qualifier,(NY),,UPPERCASE,,,Did the serious event result in persistent or significant disability/incapacity?,EVENTS,__SDISAB,Y,,Y,,,,,,,,
,APMH,MHSDTH,Results in Death,470,C,2,,text,NY,,Perm,Derived,Derived,Sponsor,Record Qualifier,(NY),If MH record exists with MHOUT=FATAL then MHSDTH=Y,UPPERCASE,,,Did the serious event result in death?,EVENTS,__SDTH,Y,,Y,,,,,,,,
,APMH,MHSHOSP,Requires or Prolongs Hospitalization,480,C,2,,text,NY,,Perm,,,,Record Qualifier,(NY),,UPPERCASE,,,Did the serious event require or prolong hospitalization?,EVENTS,__SHOSP,Y,,Y,,,,,,,,
,APMH,MHSLIFE,Is Life Threatening,490,C,2,,text,NY,,Perm,,,,Record Qualifier,(NY),,UPPERCASE,,,Was the serious event life threatening?,EVENTS,__SLIFE,Y,,Y,,,,,,,,
,APMH,MHSOD,Occurred with Overdose,500,C,2,,text,NY,,Perm,,,,Record Qualifier,(NY),,UPPERCASE,,,Did the serious event occur with an overdose?,EVENTS,__SOD,,,,,,,,,,,
,APMH,MHSMIE,Other Medically Important Serious Event,510,C,2,,text,NY,,Perm,,,,Record Qualifier,(NY),,UPPERCASE,,,Do additional categories for seriousness apply?,EVENTS,__SMIE,Y,,Y,,,,,,,,
,APMH,MHCONTRT,Concomitant or Additional Trtmnt Given,520,C,2,,text,NY,,Perm,,,,Record Qualifier,(NY),,UPPERCASE,,,,EVENTS,__CONTRT,,,,,,,,,,,
,APMH,MHTOX,Toxicity,530,C,80,,text,,,Perm,,,,Variable Qualifier,*,,UPPERCASE,,,,EVENTS,__TOX,Y,,Y,,,,,,,,
,APMH,MHTOXGR,Toxicity Grade,540,C,80,,text,,,Perm,,,,Record Qualifier,*,,UPPERCASE,,,,EVENTS,__TOXGR,Y,,Y,,,,,,,,
,APMH,ETCD,Element Code,550,C,8,,text,,,Req,Assigned,Assigned,Sponsor,Record Qualifier,*,,UPPERCASE,,Set based on the SE domain,"ETCD (the companion to ELEMENT) is limited to 8 characters and does not have special character restrictions. These values should be short for ease of use in programming, but it is not expected that ETCD will need to serve as a variable name.",NN DEFINED,ETCD,,,,,,,,,60,sdtme_std_etcd_v$$,
,APMH,ELEMENT,Description of Element,560,C,40,,text,,,Req,Protocol,Protocol,Sponsor,Record Qualifier,*,,UPPERCASE,,Set based on the SE domain,The name of the Element.,NN DEFINED,ELEMENT,,,,,,,,,60,sdtme_std_etcd_v$$,
,APMH,VISITNUM,Visit Number,570,N,8,9.3,float,,,Perm,Protocol,Protocol,Sponsor,Timing,,,,,Multiple unscheduled visits or non-visits can exist having the same visit ID but with different dates. This might result in duplicate records for the same visit number but with different dates,,TIMING,VISITNUM,Y,,Y,,,,,,,,
,APMH,VISIT,Visit Name,580,C,40,,text,,,Perm,Protocol,Protocol,Sponsor,Timing,,,UPPERCASE,,,,TIMING,VISIT,,,,,,,,,20,sdtme_std_visit_v$$,
,APMH,VISITDY,Planned Study Day of Visit,590,N,8,,integer,,,Perm,Assigned,Assigned,Sponsor,Timing,,,,,Based on TV.VISITDY,,TIMING,VISITDY,,,,,,,,,30,sdtme_std_visitdy_v$$,
,APMH,TAETORD,Planned Order of Element within Arm,600,N,8,,integer,,,Perm,Protocol,Protocol,Sponsor,Timing,,,,,,Number that gives the planned order of the Element within the Arm for the element in which the assessment was made,TIMING,TAETORD,,,,,,,,,,,
,APMH,EPOCH,Epoch,610,C,40,,text,EPOCH,,Perm,Protocol,Protocol,Sponsor,Timing,(EPOCH),,UPPERCASE,,Set based on the SE domain,"Epoch associated with the start date/time of the observation, or the date/time of collection if start date/time is not collected. (See Section 3.2.2).",TIMING,EPOCH,,,,,,,,,50,sdtme_std_epoch_v$$,
,APMH,MHDTC,Date/Time of History Collection,620,C,64,,datetime,,,Perm,,Collected,,Timing,ISO 8601,,UPPERCASE DATETIME,,,,TIMING,__DTC,Y,,Y,,,,,,,,
,APMH,MHSTDTC,Start Date/Time of Medical History Event,630,C,64,,datetime,,,Perm,,Collected,,Timing,ISO 8601,,UPPERCASE DATETIME,,,,TIMING,__STDTC,Y,,Y,,,,,,,,
,APMH,MHENDTC,End Date/Time of Medical History Event,640,C,64,,datetime,,,Perm,,Collected,,Timing,ISO 8601,,UPPERCASE DATETIME,,,,TIMING,__ENDTC,Y,,Y,,,,,,,,
,APMH,MHDY,Study Day of History Collection,650,N,8,,integer,,,Perm,Derived,Derived,Sponsor,Timing,,If MHDTC GE RFSTDTC then MHDY=MHDTC-RFSTDTC+1; otherwise MHDY=MHDTC-RFSTDTC.,,,,"1. Study day of medical history collection, measured as integer days. 2. Algorithm for calculations must be relative to the sponsor-defined RFSTDTC variable in Demographics. This formula should be consistent across the submission.",TIMING,__DY,,,,,,,,,10,sdtme_std_dy_v$$,
,APMH,MHSTDY,Study Day of Start of Observation,660,N,8,,integer,,,Perm,Derived,Derived,Sponsor,Timing,,If MHSTDTC GE RFSTDTC then MHSTDY=MHSTDTC-RFSTDTC+1; otherwise MHSTDY=MHSTDTC-RFSTDTC.,,,,,TIMING,__STDY,,,,,,,,,10,sdtme_std_dy_v$$,
,APMH,MHENDY,Study Day of End of Observation,670,N,8,,integer,,,Perm,Derived,Derived,Sponsor,Timing,,If MHENDTC GE RFSTDTC then MHENDY=MHENDTC-RFSTDTC+1; otherwise MHENDY=MHENDTC-RFSTDTC.,,,,,TIMING,__ENDY,,,,,,,,,10,sdtme_std_dy_v$$,
,APMH,MHDUR,Duration,680,C,64,,durationDatetime,,,Perm,,,,Timing,ISO 8601,,UPPERCASE DURATION,,,,TIMING,__DUR,Y,,Y,,,,,,,,
,APMH,MHTPT,Planned Time Point Name,690,C,80,,text,,,Perm,,,,Timing,,,UPPERCASE,,,,TIMING,__TPT,Y,,Y,,,,,,110,sdtme_std_tpt_v$$,
,APMH,MHTPTNUM,Planned Time Point Number,700,N,8,8.1,float,,,Perm,,,,Timing,,,,,,,TIMING,__TPTNUM,Y,,Y,,,,,,110,sdtme_std_tpt_v$$,
,APMH,MHELTM,Planned Elapsed Time from Time Point Ref,710,C,64,,durationDatetime,,,Perm,,,,Timing,ISO 8601,,UPPERCASE DURATION,,,,TIMING,__ELTM,Y,,Y,,,,,,,,
,APMH,MHTPTREF,Time Point Reference,720,C,80,,text,,,Perm,,,,Timing,,,UPPERCASE,,,,TIMING,__TPTREF,Y,,Y,,,,,,110,sdtme_std_tpt_v$$,
,APMH,MHRFTDTC,Date/Time of Reference Time Point,730,C,64,,datetime,,,Perm,,,,Timing,ISO 8601,,UPPERCASE DATETIME,,,,TIMING,__RFTDTC,Y,,Y,,,,,,,,
,APMH,MHSTRF,Start Relative to Reference Period,740,C,20,,text,STENRF,,Perm,Derived,Derived,Sponsor,Timing,(STENRF),Classifies the start of the medication relative to reference period as defined by RFSTDTC and RFENDTC in Demographics.,UPPERCASE,,Classifies the start of the medication relative to reference period as defined by RFSTDTC and RFENDTC in Demographics.,,TIMING,__STRF,Y,,Y,,,,,,,,
,APMH,MHENRF,End Relative to Reference Period,750,C,20,,text,STENRF,,Perm,Derived,Derived,Sponsor,Timing,(STENRF),"Classifies the end of the medication relative to reference period as defined by RFSTDTC and RFENDTC in Demographics. If reported as ongoing on the CRF, the value will be set to ONGOING.",UPPERCASE,,,Describes the end of the event relative to the sponsor-defined reference period. The sponsor-defined reference period is a continuous period of time defined by a discrete starting point and a discrete ending point (represented by RFSTDTC and RFENDTC in Demographics) This variable is proposed for deletion post SDTM V1.4.,TIMING,__ENRF,Y,,Y,,,,,,,,
,APMH,MHEVLINT,Evaluation Interval,760,C,64,,durationDatetime,,,Perm,CRF,Collected,Investigator,Timing,ISO 8601,,UPPERCASE DURATION,,,,TIMING,__EVLINT,Y,,Y,,,,,,,,
,APMH,MHEVINTX,Evaluation Interval Text,770,C,40,,text,,,Perm,CRF,Collected,Investigator,Timing,,,UPPERCASE,,,"Evaluation interval associated with an observation, where the interval is not able to be represented in ISO 8601 format. Examples: ""LIFETIME"", ""LAST NIGHT"", ""RECENTLY"", ""OVER THE LAST FEW WEEKS"".",TIMING,__EVINTX,Y,,Y,,,,,,,,
,APMH,MHSTRTPT,Start Relative to Reference Time Point,780,C,40,,text,STENRF,,Perm,Assigned,Assigned,Sponsor,Timing,(STENRF),,UPPERCASE,,,,TIMING,__STRTPT,Y,,Y,,,,,,,,BEFORE|COINCIDENT|AFTER|U
,APMH,MHSTTPT,Start Reference Time Point,790,C,40,,text,,,Perm,Assigned,Assigned,Sponsor,Timing,,,UPPERCASE,,,,TIMING,__STTPT,Y,,Y,,,,,,,,
,APMH,MHENRTPT,End Relative to Reference Time Point,800,C,40,,text,STENRF,,Perm,Assigned,Assigned,Sponsor,Timing,(STENRF),,UPPERCASE,,,Identifies the end of the event as being before or after the reference time point defined by variable MHENTPT.,TIMING,__ENRTPT,Y,,Y,,,,,,,,BEFORE|AFTER|COINCIDENT|ONGOING|U
,APMH,MHENTPT,End Reference Time Point,810,C,40,,text,,,Perm,Assigned,Assigned,Sponsor,Timing,,,UPPERCASE,,,"Description or date/time in ISO 8601 character format of the reference point referred to by MHENRTPT. Examples: ""2003-12-25"" or ""VISIT 2"".",TIMING,__ENTPT,Y,,Y,,,,,,,,
,APQS,CDMS_SUB_EVT_NUM,CDMS Repeat Sequence Number,10,N,8,,integer,,,Perm,,,,Record Qualifier,,,,,,,NN DEFINED,CDMS_SUB_EVT_NUM,,subevnum,Y,Y,,,,,,,
,APQS,SRC_FIND_COLL_UNIT,CDW SRC Finding Collection Unit,20,C,80,,text,,,Perm,,,,Record Qualifier,,,,,,,NN DEFINED,SRC_FIND_COLL_UNIT,,unitcoll,Y,Y,,,,,,,
,APQS,TOPIC_CD,CDW Topic Code,30,C,80,,text,,,Perm,,,,Topic,,,,,,,NN DEFINED,TOPIC_CD,,topiccd,Y,Y,,,,,,,
Y,APQS,STUDYID,Study Identifier,40,C,40,,text,,,Req,Protocol,Protocol,Sponsor,Identifier,,,UPPERCASE,,,Unique identifier for a study.,IDENTIFIERS,STUDYID,*,,Y,,,,,,,,
Y,APQS,DOMAIN,Domain Abbreviation,50,C,8,,text,DOMAIN,,Req,Assigned,Assigned,Sponsor,Identifier,APQS,,UPPERCASE,,,"Four-character abbreviation for the domain, AP--.",IDENTIFIERS,DOMAIN,*,,Y,,,,,,,,
,APQS,USUBJID,Unique Subject Identifier,60,C,60,,text,,,Req,Assigned,Assigned,Sponsor,Identifier,,,UPPERCASE,,Concatenation of STUDYID and DM.SUBJID (This is a variable for internal system use),Identifier used to uniquely identify a subject across all studies for all applications or submissions involving the product.,NN DEFINED,USUBJID,*,,Y,Y,,,,,,,
Y,APQS,APID,Associated Persons Identifier,70,C,60,,text,,,Req,Assigned,Assigned,Sponsor,Identifier,,,UPPERCASE,,,"Identifier for a single associated person, a group of associated persons, or a pool of associated persons. If APID identifies a pool, POOLDEF records must exist for each associated person.",IDENTIFIERS,APID,Y,,Y,,,,,,,,
Y,APQS,QSSEQ,Sequence Number,80,N,8,,integer,,,Req,Assigned,Assigned,Sponsor,Identifier,,,,,,Sequence number to ensure uniqueness of records within a domain for associated persons. Unique within APID within the domain.,IDENTIFIERS,__SEQ,*,,Y,,,,,,,,
Y,APQS,RSUBJID,Related Subject,90,C,60,,text,,,Exp,CRF,Collected,Investigator,Record Qualifier,,,UPPERCASE,,,Identifier for a related study subject or pool of study subjects. The subject(s) may be human or animal. RSUBJID will be populated with the USUBJID of the related subject or the POOLID of the related pool. RSUBJID will be null for data about associated persons who are related to the study but not to any of the study subjects.,IDENTIFIERS,RSUBJID,Y,,Y,,,,,,,,
Y,APQS,RDEVID,Related Device,100,C,40,,text,,,Perm,CRF,Collected,Investigator,Record Qualifier,,,UPPERCASE,,,Identifier for a related device. RDEVID will be populated with the SPDEVID of the related device.,IDENTIFIERS,RDEVID,Y,,Y,,,,,,,,
Y,APQS,SREL,"Subject, Device, or Study Relationship",110,C,40,,text,RELSUB,,Req,CRF,Collected,Investigator,Record Qualifier,(RELSUB),,UPPERCASE,,,"If RSUBJID is populated, describes the relationship of the associated person(s) identified in APID to the subject or pool identified in RSUBJID. If RDEVID is populated, describes the relationship of the associated person(s) identified in APID to the device identified in RDEVID. If RSUBJID and RDEVID are null, SREL describes the relationship of the associated person(s) identified in APID to the study identified in STUDYID.",IDENTIFIERS,SREL,Y,,Y,,,,,,,,
,APQS,QSGRPID,Group ID,120,C,60,,text,,,Perm,Assigned,Assigned,Sponsor,Identifier,,,UPPERCASE,,,Used to tie together a block of related records in a single domain for a subject.,IDENTIFIERS,__GRPID,Y,,Y,,,,,,,,
,APQS,QSREFID,Reference ID,130,C,80,,text,,,Perm,,Collected,,Identifier,,,UPPERCASE,,,,IDENTIFIERS,__REFID,Y,,Y,,,,,,,,
,APQS,QSSPID,Sponsor-Defined Identifier,140,C,40,,text,,,Perm,Assigned,Assigned,Sponsor,Identifier,,,UPPERCASE,,Sponsor-defined identifier. Example: pre-printed line identifier on a Concomitant Medications page.,Sponsor-defined identifier. Example: pre-printed line identifier on a Concomitant Medications page.,IDENTIFIERS,__SPID,*,,Y,,,,,,,,
,APQS,APQSSPID,Sponsor-Defined Identifier,150,C,40,,text,,,Perm,Assigned,Assigned,Sponsor,Identifier,,,UPPERCASE,,"System generated unique identifier, required for Enriched SDTM generation.",,IDENTIFIERS,__SPID,*,,Y,Y,,,,,,,
,APQS,QSLNKID,Link ID,160,C,60,,text,,,Perm,Assigned,Assigned,Sponsor,Identifier,,,UPPERCASE,,,Identifier used to link related records across domains. This may be a one-to- one or a one-to-many relationship. For Example: A single tumor may have multiple measurements/assessments performed at each study visit.,IDENTIFIERS,__LNKID,Y,,Y,,,,,,,,
,APQS,QSLNKGRP,Link Group ID,170,C,60,,text,,,Perm,Assigned,Assigned,Sponsor,Identifier,,,UPPERCASE,,,Identifier used to link related records across domains. This will usually be a many-to-one relationship. For example: Multiple tumor measurements/assessments will contribute to a single response to therapy determination record.,IDENTIFIERS,__LNKGRP,Y,,Y,,,,,,,,
,APQS,QSTESTCD,Question Short Name,180,C,8,,text,QSTESTCD,Y,Req,Assigned,Assigned,Sponsor,Topic,*,,UPPERCASE,,,"Topic variable for QS. Short name for the value in QSTEST, which can be used as a column name when converting the dataset from a vertical format to a horizontal format. The value in QSTESTCD cannot be longer than 8 characters, nor can it start with a number (e.g.""1TEST""). QSTESTCD cannot contain characters other than letters, numbers, or underscores. See QS Terminology Spreadsheet for specific text for QSTESTCD. Examples: ADCCMD01, BPR0103",FINDINGS,__TESTCD,Y,,Y,,,,,,,,
,APQS,QSTEST,Question Name,190,C,40,,text,QSTEST,Y,Req,Assigned,Assigned,Sponsor,Synonym Qualifier,*,,MIXEDCASE,,,"Verbatim name of the question or group of questions used to obtain the measurement or finding. The value in QSTEST cannot be longer than 40 characters. See QS Terminology Spreadsheet for specific text for QSTEST. Example: Fist, BPR01 - Emotional Withdrawal",FINDINGS,__TEST,Y,,Y,,,,,,,,
,APQS,QSCAT,Category of Question,200,C,60,,text,QSCAT,,Req,Assigned,Assigned,Sponsor,Grouping Qualifier,(QSCAT),,UPPERCASE,,,"Used to define a category of related records that will be meaningful to the Reviewer. See QS Terminology Spreadsheet for specific text for QSCAT. Examples: ADAS-COG, MDS-UPDRS.",FINDINGS,__CAT,Y,,Y,,,,,,100,sdtme_qs_sf36_v$$,
,APQS,QSSCAT,Subcategory for Question,210,C,60,,text,,,Perm,Assigned,Assigned,Sponsor,Grouping Qualifier,*,,UPPERCASE,,,"A further categorization of the questions within the category. Examples: MENTAL HEALTH DOMAIN, DEPRESSION DOMAIN, WORD RECALL.",FINDINGS,__SCAT,Y,,Y,,,,,,,,
,APQS,QSORRES,Finding in Original Units,220,C,200,,text,,,Exp,,,,Result Qualifier,,,UPPERCASE,,,"Finding as originally received or collected (e.g. RARELY, SOMETIMES). When sponsors apply codelist to indicate the code values are statistically meaningful standardized scores, which are defined by sponsors or by valid methodologies such as SF36 questionnaires, QSORRES will contain the decode format, and QSSTRESC and QSSTRESN may contain the standardized code values or scores.",FINDINGS,__ORRES,Y,,Y,,QSTESTCD,QSTEST,,,,,
,APQS,QSORRESU,Original Units,230,C,40,,text,UNIT,,Perm,,,,Variable Qualifier,(UNIT),,MIXEDCASE,,,"Original units in which the data were collected. The unit for QSORRES, such as minutes or seconds or the units associated with a visual analog scale.",FINDINGS,__ORRESU,,unitcoll,Y,,QSTESTCD,QSTEST,Y,,,,
,APQS,QSSTRESC,Result or Finding in Standard Format,240,C,200,,text,,,Exp,Derived,Derived,Sponsor,Result Qualifier,,Finding in Original Units converted to SI unit,UPPERCASE,,,"Contains the finding for all questions or sub-scores, copied or derived from QSORRES in a standard format or standard units. QSSTRESC should store all findings in character format; if findings are numeric, they should also be stored in numeric format in QSSTRESN. If question scores are derived from the original finding, then the standard format is the score. Examples: 0, 1. When sponsors apply codelist to indicate the code values are statistically meaningful standardized scores, which are defined by sponsors or by valid methodologies such as SF36 questionnaires, QSORRES will contain the decode format, and QSSTRESC and QSSTRESN may contain the standardized code values or scores.",FINDINGS,__STRESC,Y,,Y,,,,,,80,sdtme_std_strescnu_v$$,
,APQS,QSSTRESN,Numeric Finding in Standard Units,250,N,8,8.3,float,,,Perm,Derived,Derived,Sponsor,Result Qualifier,,Finding in Original Units converted to SI unit,,,,Used for continuous or numeric findings in standard format; copied in numeric format from QSSTRESC. QSSTRESN should store all numeric results or findings.,FINDINGS,__STRESN,,,,,,,,,80,sdtme_std_strescnu_v$$,
,APQS,QSSTRESU,Standard Units,260,C,40,,text,UNIT,,Perm,Assigned,Assigned,Sponsor,Variable Qualifier,(UNIT),,MIXEDCASE,,SI unit,Standardized unit used for QSSTRESC or QSSTRESN.,FINDINGS,__STRESU,,,,,,,,,80,sdtme_std_strescnu_v$$,
,APQS,QSSTAT,Completion Status,270,C,40,,text,ND,,Perm,Derived,Derived,Sponsor,Record Qualifier,(ND),"Set to NOT DONE if 'ND', 'NA', 'NK' ,' ' have been reported on CRF",UPPERCASE,,,Used to indicate a questionnaire or response to a questionnaire was not done. Should be null if a result exists in QSORRES.,FINDINGS,__STAT,Y,,Y,,,,,,5,sdtme_qs_stat_v$$,
,APQS,QSREASND,Reason Not Performed,280,C,200,,text,,,Perm,Derived,Derived,Sponsor,Record Qualifier,,Set to NOT COLLECTED if QSSTAT is set to NOT DONE,UPPERCASE,,,Describes why a question was not answered. Used in conjunction with QSSTAT when value is NOT DONE. Example: SUBJECT REFUSED.,FINDINGS,__REASND,Y,,Y,,,,,,5,sdtme_qs_stat_v$$,
,APQS,QSLOBXFL,Last Observation Before Exposure Flag,290,C,1,,text,NY,,Perm,Derived,Derived,Sponsor,Record Qualifier,(NY),Set to 'Y' when the record contains the last non-missing value prior to RFXSTDTC.,UPPERCASE,,,"Operationally-derived indicator used to identify the last non-missing value prior to RFXSTDTC. The value should be ""Y"" or null.",FINDINGS,__LOBXFL,,,,,,,,,,,Y
,APQS,QSBLFL,Baseline Flag,300,C,2,,text,NY,,Perm,Derived,Derived,Sponsor,Record Qualifier,(NY),Baseline flag set to Y when the assessment is collected at the visit marked as baseline in the trial flowchart,UPPERCASE,,,"Indicator used to identify a baseline value. The value should be ""Y"" or null.",FINDINGS1,__BLFL,,,,,,,,,20,sdtme_std_blfl_v$$,Y
,APQS,QSDRVFL,Derived Flag,310,C,2,,text,NY,,Perm,,,,Record Qualifier,(NY),,UPPERCASE,,,"Used to indicate a derived record. The value should be Y or null. Records that represent the average of other records or questionnaire sub-scores that do not come from the CRF are examples of records that would be derived for the submission datasets. If QSDRVFL=Y, then QSORRES may be null with QSSTRESC and (if numeric) QSSTRESN having the derived value.",FINDINGS,__DRVFL,,,,,,,,,,,Y
,APQS,QSEVAL,Evaluator,320,C,40,,text,EVAL,,Perm,,,,Record Qualifier,(EVAL),,UPPERCASE,,,"Role of the person who provided the evaluation. Examples: STUDY SUBJECT, CAREGIVER, INVESTIGATOR.",FINDINGS,__EVAL,Y,,Y,,,,,,,,
,APQS,QSEVALID,Evaluator Identifier,330,C,40,,text,MEDEVAL,,Perm,,,,Variable Qualifier,(MEDEVAL),,UPPERCASE,,,Used to distinguish multiple evaluators with the same role recorded in --EVAL. Examples: RADIOLOGIST1 or RADIOLOGIST2,FINDINGS,__EVALID,Y,,Y,,,,,,,,
,APQS,QSREPNUM,Repetition Number,340,N,8,,integer,,,Perm,,,,Record Qualifier,,,,,,"The incidence number of a test that is repeated within a given timeframe for the same test. The level of granularity can vary, e.g., within a time point or within a visit. For example, multiple measurements of blood pressure or multiple analyses of a sample.",FINDINGS,__REPNUM,Y,,Y,,,,,,,,
,APQS,ETCD,Element Code,350,C,8,,text,,,Req,Assigned,Assigned,Sponsor,Record Qualifier,*,,UPPERCASE,,Set based on the SE domain,"ETCD (the companion to ELEMENT) is limited to 8 characters and does not have special character restrictions. These values should be short for ease of use in programming, but it is not expected that ETCD will need to serve as a variable name.",NN DEFINED,ETCD,,,,,,,,,60,sdtme_std_etcd_v$$,
,APQS,ELEMENT,Description of Element,360,C,40,,text,,,Req,Protocol,Protocol,Sponsor,Record Qualifier,*,,UPPERCASE,,Set based on the SE domain,The name of the Element.,NN DEFINED,ELEMENT,,,,,,,,,60,sdtme_std_etcd_v$$,
,APQS,VISITNUM,Visit Number,370,N,8,9.3,float,,,Exp,Protocol,Protocol,Sponsor,Timing,,,,,,"1. Clinical encounter number. 2. Numeric version of VISIT, used for sorting.",TIMING,VISITNUM,Y,,Y,,,,,,,,
,APQS,VISIT,Visit Name,380,C,40,,text,,,Perm,Protocol,Protocol,Sponsor,Timing,,,UPPERCASE,,,1. Protocol-defined description of clinical encounter. 2. May be used in addition to VISITNUM and/or VISITDY.,TIMING,VISIT,,,,,,,,,30,sdtme_std_visit_v$$,
,APQS,VISITDY,Planned Study Day of Visit,390,N,8,,integer,,,Perm,Assigned,Assigned,Sponsor,Timing,,,,,Based on TV.VISITDY,Planned study day of the visit based upon RFSTDTC in Demographics.,TIMING,VISITDY,,,,,,,,,40,sdtme_std_visitdy_v$$,
,APQS,TAETORD,Planned Order of Element within Arm,400,N,8,,integer,,,Perm,Protocol,Protocol,Sponsor,Timing,,,,,,Number that gives the planned order of the Element within the Arm for the element in which the assessment was made,TIMING,TAETORD,,,,,,,,,,,
,APQS,EPOCH,Epoch,410,C,40,,text,EPOCH,,Perm,Protocol,Protocol,Sponsor,Timing,(EPOCH),,UPPERCASE,,Set based on the SE domain,"Epoch associated with the start date/time of the observation, or the date/time of collection if start date/time is not collected. (See Section 3.2.2).",TIMING,EPOCH,,,,,,,,,50,sdtme_std_epoch_v$$,
,APQS,QSDTC,Date/Time of Finding,420,C,64,,datetime,,,Exp,,Collected,,Timing,ISO 8601,,UPPERCASE DATETIME,,,Date of questionnaire.,TIMING,__DTC,Y,,Y,,,,,,,,
,APQS,QSSTDTC,Start Date/Time of Observation,430,C,64,,datetime,,,Perm,,,,Timing,ISO 8601,,UPPERCASE DATETIME,,,Start date/time of an observation.,NN DEFINED,__STDTC,Y,,Y,,,,,,,,
,APQS,QSENDTC,End Date/Time of Observation,440,C,64,,datetime,,,Perm,,Collected,,Timing,ISO 8601,,UPPERCASE DATETIME,,,End date/time of the observation represented in IS0 8601 character format.,TIMING,__ENDTC,Y,,Y,,,,,,,,
,APQS,QSDY,Study Day of Finding,450,N,8,,integer,,,Perm,Derived,Derived,Sponsor,Timing,,If QSDTC GE RFSTDTC then QSDY=QSDTC-RFSTDTC+1; otherwise QSDY=QSDTC-RFSTDTC.,,,,"1. Study day of finding collection, measured as integer days. 2. Algorithm for calculations must be relative to the sponsor-defined RFSTDTC variable in Demographics.",TIMING,__DY,,,,,,,,,10,sdtme_std_dy_v$$,
,APQS,QSSTDY,Study Day of Start of Observation,460,N,8,,integer,,,Perm,Derived,Derived,Sponsor,Timing,,if QSSTDTC GE RFSTDTC then QSSTDY=QSSTDTC-RFSTDTC+1; otherwise QSSTDY=QSSTDTC-RFSTDTC.,,,,Actual study day of start of observation expressed in integer days relative to the sponsor-defined RFSTDTC in Demographics.,TIMING,__STDY,,,,,,,,,,,
,APQS,QSENDY,Study Day of End of Observation,470,N,8,,integer,,,Perm,Derived,Derived,Sponsor,Timing,,If QSENDTC GE RFSTDTC then QSENDY=QSENDTC-RFSTDTC+1; otherwise QSENDY=QSENDTC-RFSTDTC.,,,,Actual study day of end of observation expressed in integer days relative to the sponsor-defined RFSTDTC in Demographics.,TIMING,__ENDY,,,,,,,,,10,sdtme_std_dy_v$$,
,APQS,QSTPT,Planned Time Point Name,480,C,80,,text,,,Perm,Assigned,Assigned,Sponsor,Timing,,,UPPERCASE,,,"1. Text Description of time when questionnaire should be administered. 2. This may be represented as an elapsed time relative to a fixed reference point, such as time of last dose. See QSTPTNUM and QSTPTREF.",TIMING,__TPT,Y,,Y,,,,,,110,sdtme_std_tpt_v$$,
,APQS,QSTPTNUM,Planned Time Point Number,490,N,8,8.1,float,,,Perm,Assigned,Assigned,Sponsor,Timing,,,,,,Numerical version of QSTPT to aid in sorting.,TIMING,__TPTNUM,Y,,Y,,,,,,110,sdtme_std_tpt_v$$,
,APQS,QSELTM,Planned Elapsed Time from Time Point Ref,500,C,64,,durationDatetime,,,Perm,,,,Timing,ISO 8601,,UPPERCASE DURATION,,,"Planned Elapsed time (in ISO 8601) relative to a planned fixed reference (QSTPTREF). This variable is useful where there are repetitive measures. Not a clock time or a date time variable. Represented as an ISO 8601 duration. Examples: ""-PT15M"" to represent the period of 15 minutes prior to the reference point indicated by QSTPTREF, or ""PT8H"" to represent the period of 8 hours after the reference point indicated by QSTPTREF.",TIMING,__ELTM,Y,,Y,,,,,,,,
,APQS,QSTPTREF,Time Point Reference,510,C,80,,text,,,Perm,Assigned,Assigned,Sponsor,Timing,,,UPPERCASE,,,"Name of the fixed reference point referred to by QSELTM, QSTPTNUM, and QSTPT. Examples: PREVIOUS DOSE, PREVIOUS MEAL.",TIMING,__TPTREF,Y,,Y,,,,,,110,sdtme_std_tpt_v$$,
,APQS,QSRFTDTC,Date/Time of Reference Time Point,520,C,64,,datetime,,,Perm,,,,Timing,ISO 8601,,UPPERCASE DATETIME,,,"Date/time of the reference time point, LBTPTREF.",TIMING,__RFTDTC,Y,,Y,,,,,,,,
,APQS,QSEVLINT,Evaluation Interval,530,C,64,,durationDatetime,,,Perm,CRF,Collected,Subject,Timing,ISO 8601,,UPPERCASE DURATION,,,"Evaluation Interval associated with a QSTEST question represented in ISO 8601 character format. Example: ""-P2Y"" to represent an interval of 2 years in the question ""Have you experienced any episodes in the past 2 years?""",TIMING,__EVLINT,Y,,Y,,,,,,,,
,APQS,QSEVINTX,Evaluation Interval Text,540,C,40,,text,,,Perm,CRF,Collected,Subject,Timing,,,UPPERCASE,,,"Evaluation interval associated with an observation, where the interval is not able to be represented in ISO 8601 format. Examples: LIFETIME, LAST NIGHT, RECENTLY, OVER THE LAST FEW WEEKS.",TIMING,__EVINTX,Y,,Y,,,,,,,,
,APRP,CDMS_SUB_EVT_NUM,CDMS Repeat Sequence Number,10,N,8,,integer,,,Perm,,,,Record Qualifier,,,,,,,NN DEFINED,CDMS_SUB_EVT_NUM,,subevnum,Y,Y,,,,,,,
,APRP,SRC_FIND_COLL_UNIT,CDW SRC Finding Collection Unit,20,C,80,,text,,,Perm,,,,Record Qualifier,,,,,,,NN DEFINED,SRC_FIND_COLL_UNIT,,unitcoll,Y,Y,,,,,,,
,APRP,TOPIC_CD,CDW Topic Code,30,C,80,,text,,,Perm,,,,Topic,,,,,,,NN DEFINED,TOPIC_CD,,topiccd,Y,Y,,,,,,,
Y,APRP,STUDYID,Study Identifier,40,C,40,,text,,,Req,Protocol,Protocol,Sponsor,Identifier,,,UPPERCASE,,,Unique identifier for a study.,IDENTIFIERS,STUDYID,*,,Y,,,,,,,,
Y,APRP,DOMAIN,Domain Abbreviation,50,C,8,,text,DOMAIN,,Req,Assigned,Assigned,Sponsor,Identifier,APRP,,UPPERCASE,,,"Four-character abbreviation for the domain, AP--.",IDENTIFIERS,DOMAIN,*,,Y,,,,,,,,
,APRP,USUBJID,Unique Subject Identifier,60,C,60,,text,,,Req,Assigned,Assigned,Sponsor,Identifier,,,UPPERCASE,,Concatenation of STUDYID and DM.SUBJID (This is a variable for internal system use),Identifier used to uniquely identify a subject across all studies for all applications or submissions involving the product.,NN DEFINED,USUBJID,*,,Y,Y,,,,,,,
Y,APRP,APID,Associated Persons Identifier,70,C,60,,text,,,Req,Assigned,Assigned,Sponsor,Identifier,,,UPPERCASE,,,"Identifier for a single associated person, a group of associated persons, or a pool of associated persons. If APID identifies a pool, POOLDEF records must exist for each associated person.",IDENTIFIERS,APID,Y,,Y,,,,,,,,
Y,APRP,RPSEQ,Sequence Number,80,N,8,,integer,,,Req,Assigned,Assigned,Sponsor,Identifier,,,,,,Sequence number to ensure uniqueness of records within a domain for associated persons. Unique within APID within the domain.,IDENTIFIERS,__SEQ,*,,Y,,,,,,,,
Y,APRP,RSUBJID,Related Subject,90,C,60,,text,,,Exp,CRF,Collected,Investigator,Record Qualifier,,,UPPERCASE,,,Identifier for a related study subject or pool of study subjects. The subject(s) may be human or animal. RSUBJID will be populated with the USUBJID of the related subject or the POOLID of the related pool. RSUBJID will be null for data about associated persons who are related to the study but not to any of the study subjects.,IDENTIFIERS,RSUBJID,Y,,Y,,,,,,,,
Y,APRP,RDEVID,Related Device,100,C,40,,text,,,Perm,CRF,Collected,Investigator,Record Qualifier,,,UPPERCASE,,,Identifier for a related device. RDEVID will be populated with the SPDEVID of the related device.,IDENTIFIERS,RDEVID,Y,,Y,,,,,,,,
Y,APRP,SREL,"Subject, Device, or Study Relationship",110,C,40,,text,RELSUB,,Req,CRF,Collected,Investigator,Record Qualifier,(RELSUB),,UPPERCASE,,,"If RSUBJID is populated, describes the relationship of the associated person(s) identified in APID to the subject or pool identified in RSUBJID. If RDEVID is populated, describes the relationship of the associated person(s) identified in APID to the device identified in RDEVID. If RSUBJID and RDEVID are null, SREL describes the relationship of the associated person(s) identified in APID to the study identified in STUDYID.",IDENTIFIERS,SREL,Y,,Y,,,,,,,,
,APRP,RPGRPID,Group ID,120,C,60,,text,,,Perm,Assigned,Assigned,Sponsor,Identifier,,,UPPERCASE,,,Used to tie together a block of related records in a single domain for a subject.,IDENTIFIERS,__GRPID,Y,,Y,,,,,,,,
,APRP,RPREFID,Reference ID,130,C,80,,text,,,Perm,,Collected,,Identifier,,,UPPERCASE,,,Internal or external Reproductive System Findings record identifier.,IDENTIFIERS,__REFID,Y,,Y,,,,,,,,
,APRP,RPSPID,Sponsor-Defined Identifier,140,C,40,,text,,,Perm,Assigned,Assigned,Sponsor,Identifier,,,UPPERCASE,,Sponsor-defined identifier. Example: pre-printed line identifier on a Concomitant Medications page.,Sponsor-defined identifier. Example: pre-printed line identifier on a Concomitant Medications page.,IDENTIFIERS,__SPID,*,,Y,,,,,,,,
,APRP,APRPSPID,Sponsor-Defined Identifier,150,C,40,,text,,,Perm,Assigned,Assigned,Sponsor,Identifier,,,UPPERCASE,,"System generated unique identifier, required for Enriched SDTM generation.",Sponsor-defined identifier. Perhaps pre-printed on the CRF as an explicit line identifier or defined in the sponsor's operational database.,IDENTIFIERS,__SPID,*,,Y,Y,,,,,,,
,APRP,RPLNKID,Link ID,160,C,60,,text,,,Perm,Assigned,Assigned,Sponsor,Identifier,,,UPPERCASE,,,Identifier used to link related records across domains. This may be a one-to- one or a one-to-many relationship. For Example: A single tumor may have multiple measurements/assessments performed at each study visit.,IDENTIFIERS,__LNKID,Y,,Y,,,,,,,,
,APRP,RPLNKGRP,Link Group ID,170,C,60,,text,,,Perm,Assigned,Assigned,Sponsor,Identifier,,,UPPERCASE,,,Identifier used to link related records across domains. This will usually be a many-to-one relationship. For example: Multiple tumor measurements/assessments will contribute to a single response to therapy determination record.,IDENTIFIERS,__LNKGRP,Y,,Y,,,,,,,,
,APRP,RPTESTCD,Short Name of Reproductive Test,180,C,8,,text,RPTESTCD,,Req,Assigned,Assigned,Sponsor,Topic,(RPTESTCD),,UPPERCASE,,,"Short name of the measurement, test, or examination described in RPTEST. It can be used as a column name when converting a dataset from a vertical to a horizontal format. The value in RPTESTCD cannot be longer than 8 characters, nor can it start with a number (e.g.""1TEST""). RPTESTCD cannot contain characters other than letters, numbers, or underscores. Examples: NUMLIV, NUMPREG, BCMETHOD, etc.",FINDINGS,__TESTCD,Y,,Y,,,,,,,,
,APRP,RPTEST,Name of Reproductive Test,190,C,40,,text,RPTEST,,Req,Assigned,Assigned,Sponsor,Synonym Qualifier,(RPTEST),,MIXEDCASE,,,"Verbatim name of the test or examination used to obtain the measurement or finding. The value in RPTEST cannot be longer than 40 characters. Examples: Number of Live Births, Number of Pregnancies, Birth Control Method, etc.",FINDINGS,__TEST,Y,,Y,,,,,,,,
,APRP,RPCAT,Category for Reproductive Test,200,C,60,,text,RPCAT,,Perm,Assigned,Assigned,Sponsor,Grouping Qualifier,*,,UPPERCASE,,,Used to define a category of related records.,FINDINGS,__CAT,Y,,Y,,,,,,,,
,APRP,RPSCAT,Subcategory for Reproductive Test,210,C,60,,text,,,Perm,Assigned,Assigned,Sponsor,Grouping Qualifier,*,,UPPERCASE,,,A further categorization of RP records.,FINDINGS,__SCAT,Y,,Y,,,,,,,,
,APRP,RPORRES,Result or Finding in Original Units,220,C,200,,text,,,Exp,,,,Result Qualifier,,,UPPERCASE,,,Result of the Reproductive System Findings test as originally received or collected.,FINDINGS,__ORRES,Y,,Y,,,,,,,,
,APRP,RPORRESU,Original Units,230,C,40,,text,UNIT,,Perm,,,,Variable Qualifier,(UNIT),,MIXEDCASE,,,Original units in which the data were collected. The unit for RPORRES. Examples: YEARS.,FINDINGS,__ORRESU,,unitcoll,Y,,,,,,,,
,APRP,RPSTRESC,Character Result/Finding in Std Format,240,C,200,,text,,,Exp,Derived,Derived,Sponsor,Result Qualifier,,Finding in Original Units converted to SI unit,UPPERCASE,,,"Contains the result value for all findings, copied or derived from RPORRES in a standard format or standard units. RPSTRESC should store all results or findings in character format; if results are numeric, they should also be stored in numeric format in RPSTRESN. For example, if a test has results ""NONE"", ""NEG"", and ""NEGATIVE"" in RPORRES and these results effectively have the same meaning; they could be represented in standard format in RPSTRESC as ""NEGATIVE"".",FINDINGS,__STRESC,Y,,Y,,,,,,60,sdtme_std_strescnu_v$$,
,APRP,RPSTRESN,Numeric Result/Finding in Standard Units,250,N,8,8.3,float,,,Perm,Derived,Derived,Sponsor,Result Qualifier,,Finding in Original Units converted to SI unit,,,,Used for continuous or numeric results or findings in standard format; copied in numeric format from RPSTRESC. RPSTRESN should store all numeric test results or findings.,FINDINGS,__STRESN,,,,,,,,,60,sdtme_std_strescnu_v$$,
,APRP,RPSTRESU,Standard Units,260,C,40,,text,UNIT,,Perm,Assigned,Assigned,Sponsor,Variable Qualifier,(UNIT),,MIXEDCASE,,SI unit,Standardized unit used for RPSTRESC and RPSTRESN.,FINDINGS,__STRESU,,,,,,,,,60,sdtme_std_strescnu_v$$,
,APRP,RPSTAT,Completion Status,270,C,40,,text,ND,,Perm,Derived,Derived,Sponsor,Record Qualifier,(ND),"Set to NOT DONE if 'ND', 'NA', 'NK' ,' ' have been reported on CRF",UPPERCASE,,,Used to indicate that a Reproductive System Findings test was not done. Should be null if a result exists in RPORRES.,FINDINGS,__STAT,Y,,Y,,,,,,,,
,APRP,RPREASND,Reason Not Performed,280,C,200,,text,,,Perm,Derived,Derived,Sponsor,Record Qualifier,,Reported reason for reason not done or classification based on why response was not collected,UPPERCASE,,,Describes why a measurement or test was not performed. Examples: BROKEN EQUIPMENT or SUBJECT REFUSED. Used in conjunction with RPSTAT when value is NOT DONE.,FINDINGS,__REASND,Y,,Y,,,,,,,,
,APRP,RPMETHOD,Method of Test or Examination,290,C,80,,text,METHOD,,Perm,,,,Record Qualifier,(METHOD),,UPPERCASE,,,,FINDINGS,__METHOD,Y,,Y,,,,,,,,
,APRP,RPANMETH,Analysis Method,300,C,80,,text,,,Perm,eDT,Collected,Vendor,Record Qualifier,*,,UPPERCASE,,,Analysis method applied to obtain a summarized result. Analysis method describes the method of secondary processing applied to a complex observation result (e.g. an image or a genetic sequence).,FINDINGS,__ANMETH,Y,,Y,,,,,,,,
,APRP,RPLOBXFL,Last Observation Before Exposure Flag,310,C,1,,text,NY,,Perm,Derived,Derived,Sponsor,Record Qualifier,(NY),Set to 'Y' when the record contains the last non-missing value prior to RFXSTDTC.,UPPERCASE,,,"Operationally-derived indicator used to identify the last non-missing value prior to RFXSTDTC. The value should be ""Y"" or null.",FINDINGS,__LOBXFL,,,,,,,,,,,Y
,APRP,RPBLFL,Baseline Flag,320,C,2,,text,NY,,Perm,Derived,Derived,Sponsor,Record Qualifier,(NY),Baseline flag set to Y when the assessment is collected at the visit marked as baseline in the trial flowchart,UPPERCASE,,,"Indicator used to identify a baseline value. The value should be ""Y"" or null.",FINDINGS,__BLFL,,,,,,,,,20,sdtme_std_blfl_v$$,Y
,APRP,RPDRVFL,Derived Flag,330,C,2,,text,NY,,Perm,,,,Record Qualifier,(NY),,UPPERCASE,,,"Used to indicate a derived record. The value should be Y or null. Records which represent the average of other records or which do not come from the CRF are examples of records that would be derived for the submission datasets. If RPDRVFL=Y, then RPORRES may be null, with RPSTRESC and (if numeric) RPSTRESN having the derived value.",FINDINGS,__DRVFL,,,,,,,,,,,Y
,APRP,RPEVAL,Evaluator,340,C,40,,text,EVAL,,Perm,,,,Record Qualifier,(EVAL),,UPPERCASE,,,"Role of the person who provided the evaluation. Used only for results that are subjective (e.g., assigned by a person or a group). Examples: ADJUDICATION COMMITTEE, INDEPENDENT ASSESSOR, RADIOLOGIST.",FINDINGS,__EVAL,Y,,Y,,,,,,,,
,APRP,RPEVALID,Evaluator Identifier,350,C,40,,text,MEDEVAL,,Perm,,,,Variable Qualifier,(MEDEVAL),,UPPERCASE,,,Used to distinguish multiple evaluators with the same role recorded in --EVAL. Examples: RADIOLOGIST1 or RADIOLOGIST2,FINDINGS,__EVALID,Y,,Y,,,,,,,,
,APRP,RPTOX,Toxicity,360,C,80,,text,,,Perm,,,,Variable Qualifier,*,,UPPERCASE,,,,FINDINGS,__TOX,,,,,,,,,,,
,APRP,RPTOXGR,Toxicity Grade,370,C,80,,text,,,Perm,,,,Record Qualifier,*,,UPPERCASE,,,,FINDINGS,__TOXGR,,,,,,,,,,,
,APRP,RPREPNUM,Repetition Number,380,N,8,,integer,,,Perm,,,,Record Qualifier,,,,,,"The incidence number of a test that is repeated within a given timeframe for the same test. The level of granularity can vary, e.g., within a time point or within a visit. For example, multiple measurements of blood pressure or multiple analyses of a sample.",FINDINGS,__REPNUM,Y,,Y,,,,,,,,
,APRP,ETCD,Element Code,390,C,8,,text,,,Req,Assigned,Assigned,Sponsor,Record Qualifier,*,,UPPERCASE,,Set based on the SE domain,"ETCD (the companion to ELEMENT) is limited to 8 characters and does not have special character restrictions. These values should be short for ease of use in programming, but it is not expected that ETCD will need to serve as a variable name.",NN DEFINED,ETCD,,,,,,,,,80,sdtme_std_etcd_v$$,
,APRP,ELEMENT,Description of Element,400,C,40,,text,,,Req,Protocol,Protocol,Sponsor,Record Qualifier,*,,UPPERCASE,,Set based on the SE domain,The name of the Element.,NN DEFINED,ELEMENT,,,,,,,,,80,sdtme_std_etcd_v$$,
,APRP,VISITNUM,Visit Number,410,N,8,9.3,float,,,Exp,Protocol,Protocol,Sponsor,Timing,,,,,,"1. Clinical encounter number. 2. Numeric version of VISIT, used for sorting.",TIMING,VISITNUM,Y,,Y,,,,,,,,
,APRP,VISIT,Visit Name,420,C,40,,text,,,Perm,Protocol,Protocol,Sponsor,Timing,,,UPPERCASE,,,1. Protocol-defined description of clinical encounter. 2. May be used in addition to VISITNUM and/or VISITDY.,TIMING,VISIT,,,,,,,,,30,sdtme_std_visit_v$$,
,APRP,VISITDY,Planned Study Day of Visit,430,N,8,,integer,,,Perm,Assigned,Assigned,Sponsor,Timing,,,,,Based on TV.VISITDY,Planned study day of the visit based upon RFSTDTC in Demographics.,TIMING,VISITDY,,,,,,,,,40,sdtme_std_visitdy_v$$,
,APRP,TAETORD,Planned Order of Element within Arm,440,N,8,,integer,,,Perm,Protocol,Protocol,Sponsor,Timing,,,,,,Number that gives the planned order of the Element within the Arm for the element in which the assessment was made,TIMING,TAETORD,,,,,,,,,,,
,APRP,EPOCH,Epoch,450,C,40,,text,EPOCH,,Perm,Protocol,Protocol,Sponsor,Timing,(EPOCH),,UPPERCASE,,Set based on the SE domain,"Epoch associated with the start date/time of the observation, or the date/time of collection if start date/time is not collected. (See Section 3.2.2).",TIMING,EPOCH,,,,,,,,,70,sdtme_std_epoch_v$$,
,APRP,RPDTC,Date/Time of Measurements,460,C,64,,datetime,,,Exp,,Collected,,Timing,ISO 8601,,UPPERCASE DATETIME,,,Date of Reproductive System Finding.,TIMING,__DTC,Y,,Y,,,,,,,,
,APRP,RPSTDTC,Start Date/Time of Observation,470,C,64,,datetime,,,Perm,,,,Timing,ISO 8601,,UPPERCASE DATETIME,,,Start date/time of an observation.,NN DEFINED,__STDTC,Y,,Y,,,,,,,,
,APRP,RPENDTC,End Date/Time of Observation,480,C,64,,datetime,,,Perm,,Collected,,Timing,ISO 8601,,UPPERCASE DATETIME,,,,TIMING,__ENDTC,Y,,Y,,,,,,,,
,APRP,RPDY,Study Day of Repro System Findings,490,N,8,,integer,,,Perm,Derived,Derived,Sponsor,Timing,,If RPDTC GE RFSTDTC then RPDY=RPDTC-RFSTDTC+1; otherwise RPDY=RPDTC-RFSTDTC.,,,,"1. Study day of Reproductive System Findings observation, measured as integer days. 2. Algorithm for calculations must be relative to the sponsor-defined RFSTDTC variable in Demographics.",TIMING,__DY,,,,,,,,,10,sdtme_std_dy_v$$,
,APRP,RPSTDY,Study Day of Start of Observation,500,N,8,,integer,,,Perm,Derived,Derived,Sponsor,Timing,,if RPSTDTC GE RFSTDTC then RPSTDY=RPSTDTC-RFSTDTC+1; otherwise RPSTDY=RPSTDTC-RFSTDTC.,,,,Actual study day of start of observation expressed in integer days relative to the sponsor-defined RFSTDTC in Demographics.,TIMING,__STDY,,,,,,,,,,,
,APRP,RPENDY,Study Day of End of Observation,510,N,8,,integer,,,Perm,Derived,Derived,Sponsor,Timing,,if RSSTDTC GE RFSTDTC then RSSTDY=RSSTDTC-RFSTDTC+1; otherwise RSSTDY=RSSTDTC-RFSTDTC.,,,,Actual study day of end of observation expressed in integer days relative to the sponsor-defined RFSTDTC in Demographics.,TIMING,__ENDY,,,,,,,,,10,sdtme_std_dy_v$$,
,APRP,RPDUR,Duration,520,C,64,,durationDatetime,,,Perm,,,,Timing,ISO 8601,,UPPERCASE DURATION,,,"Collected duration of an event, intervention, or finding. Used only if collected on the CRF and not derived.",TIMING,__DUR,Y,,Y,,,,,,,,
,APRP,RPTPT,Planned Time Point Name,530,C,80,,text,,,Perm,,,,Timing,,,UPPERCASE,,,,TIMING,__TPT,Y,,Y,,,,,,110,sdtme_std_tpt_v$$,
,APRP,RPTPTNUM,Planned Time Point Number,540,N,8,8.1,float,,,Perm,,,,Timing,,,,,,,TIMING,__TPTNUM,Y,,Y,,,,,,110,sdtme_std_tpt_v$$,
,APRP,RPELTM,Planned Elapsed Time from Time Point Ref,550,C,64,,durationDatetime,,,Perm,,,,Timing,ISO 8601,,UPPERCASE DURATION,,,,TIMING,__ELTM,Y,,Y,,,,,,,,
,APRP,RPTPTREF,Time Point Reference,560,C,80,,text,,,Perm,,,,Timing,,,UPPERCASE,,,,TIMING,__TPTREF,Y,,Y,,,,,,110,sdtme_std_tpt_v$$,
,APRP,RPRFTDTC,Date/Time of Reference Time Point,570,C,64,,datetime,,,Perm,,,,Timing,ISO 8601,,UPPERCASE DATETIME,,,,TIMING,__RFTDTC,Y,,Y,,,,,,,,
,APRS,CDMS_SUB_EVT_NUM,CDMS Repeat Sequence Number,10,N,8,,integer,,,Perm,,,,Record Qualifier,,,,,,,NN DEFINED,CDMS_SUB_EVT_NUM,,subevnum,Y,Y,,,,,,,
,APRS,SRC_FIND_COLL_UNIT,CDW SRC Finding Collection Unit,20,C,80,,text,,,Perm,,,,Record Qualifier,,,,,,,NN DEFINED,SRC_FIND_COLL_UNIT,,unitcoll,Y,Y,,,,,,,
,APRS,TOPIC_CD,CDW Topic Code,30,C,80,,text,,,Perm,,,,Topic,,,,,,,NN DEFINED,TOPIC_CD,,topiccd,Y,Y,,,,,,,
Y,APRS,STUDYID,Study Identifier,40,C,40,,text,,,Req,Protocol,Protocol,Sponsor,Identifier,,,UPPERCASE,,,Unique identifier for a study.,IDENTIFIERS,STUDYID,*,,Y,,,,,,,,
Y,APRS,DOMAIN,Domain Abbreviation,50,C,8,,text,DOMAIN,,Req,Assigned,Assigned,Sponsor,Identifier,APRS,,UPPERCASE,,,"Four-character abbreviation for the domain, AP--.",IDENTIFIERS,DOMAIN,*,,Y,,,,,,,,
,APRS,USUBJID,Unique Subject Identifier,60,C,60,,text,,,Req,Assigned,Assigned,Sponsor,Identifier,,,UPPERCASE,,Concatenation of STUDYID and DM.SUBJID (This is a variable for internal system use),Identifier used to uniquely identify a subject across all studies for all applications or submissions involving the product.,NN DEFINED,USUBJID,*,,Y,Y,,,,,,,
Y,APRS,APID,Associated Persons Identifier,70,C,60,,text,,,Req,Assigned,Assigned,Sponsor,Identifier,,,UPPERCASE,,,"Identifier for a single associated person, a group of associated persons, or a pool of associated persons. If APID identifies a pool, POOLDEF records must exist for each associated person.",IDENTIFIERS,APID,Y,,Y,,,,,,,,
Y,APRS,RSSEQ,Sequence Number,80,N,8,,integer,,,Req,Assigned,Assigned,Sponsor,Identifier,,,,,,Sequence number to ensure uniqueness of records within a domain for associated persons. Unique within APID within the domain.,IDENTIFIERS,__SEQ,*,,Y,,,,,,,,
Y,APRS,RSUBJID,Related Subject,90,C,60,,text,,,Exp,CRF,Collected,Investigator,Record Qualifier,,,UPPERCASE,,,Identifier for a related study subject or pool of study subjects. The subject(s) may be human or animal. RSUBJID will be populated with the USUBJID of the related subject or the POOLID of the related pool. RSUBJID will be null for data about associated persons who are related to the study but not to any of the study subjects.,IDENTIFIERS,RSUBJID,Y,,Y,,,,,,,,
Y,APRS,RDEVID,Related Device,100,C,40,,text,,,Perm,CRF,Collected,Investigator,Record Qualifier,,,UPPERCASE,,,Identifier for a related device. RDEVID will be populated with the SPDEVID of the related device.,IDENTIFIERS,RDEVID,Y,,Y,,,,,,,,
Y,APRS,SREL,"Subject, Device, or Study Relationship",110,C,40,,text,RELSUB,,Req,CRF,Collected,Investigator,Record Qualifier,(RELSUB),,UPPERCASE,,,"If RSUBJID is populated, describes the relationship of the associated person(s) identified in APID to the subject or pool identified in RSUBJID. If RDEVID is populated, describes the relationship of the associated person(s) identified in APID to the device identified in RDEVID. If RSUBJID and RDEVID are null, SREL describes the relationship of the associated person(s) identified in APID to the study identified in STUDYID.",IDENTIFIERS,SREL,Y,,Y,,,,,,,,
,APRS,RSGRPID,Group ID,120,C,60,,text,,,Perm,Assigned,Assigned,Sponsor,Identifier,,,UPPERCASE,,,Used to link together a block of related records within a subject in a domain.,IDENTIFIERS,__GRPID,Y,,Y,,,,,,,,
,APRS,RSREFID,Reference ID,130,C,80,,text,,,Perm,,Collected,,Identifier,,,UPPERCASE,,,Internal or external identifier.,IDENTIFIERS,__REFID,Y,,Y,,,,,,,,
,APRS,RSSPID,Sponsor-Defined Identifier,140,C,40,,text,,,Perm,Assigned,Assigned,Sponsor,Identifier,,,UPPERCASE,,Sponsor-defined identifier. Example: pre-printed line identifier on a Concomitant Medications page.,Sponsor-defined identifier. Example: pre-printed line identifier on a Concomitant Medications page.,IDENTIFIERS,__SPID,*,,Y,,,,,,,,
,APRS,APRSSPID,Sponsor-Defined Identifier,150,C,40,,text,,,Perm,Assigned,Assigned,Sponsor,Identifier,,,UPPERCASE,,"System generated unique identifier, required for Enriched SDTM generation.",,IDENTIFIERS,__SPID,*,,Y,Y,,,,,,,
,APRS,RSLNKID,Link ID,160,C,60,,text,,,Perm,Assigned,Assigned,Sponsor,Identifier,,,UPPERCASE,,,Used to link the response assessment to the appropriate measurement records (in TR) for same tumor that was used to determine the response result.,IDENTIFIERS,__LNKID,Y,,Y,,,,,,,,
,APRS,RSLNKGRP,Link Group ID,170,C,60,,text,,,Perm,Assigned,Assigned,Sponsor,Identifier,,,UPPERCASE,,,Used to link the response assessment to the all of the measurement/assessment records in the TR domain which were used in the assessment of the response.,IDENTIFIERS,__LNKGRP,Y,,Y,,,,,,,,
,APRS,RSTESTCD,Assessment Short Name,180,C,8,,text,RSTESTCD,Y,Req,Assigned,Assigned,Sponsor,Topic,(ONCRTSCD)|(RSTESTCD),,UPPERCASE,,,"Short name of the TEST in RSTEST. RSTESTCD cannot contain characters other than letters, numbers, or underscores. Examples: TRGRESP, NTRGRESP, OVRRESP, BESTRESP, NRADPROG",FINDINGS,__TESTCD,Y,,Y,,RSCAT,,V,,,,
,APRS,RSTEST,Assessment Name,190,C,40,,text,RSTEST,Y,Req,Assigned,Assigned,Sponsor,Synonym Qualifier,(ONCRTS)|(RSTEST),,MIXEDCASE,,,"Verbatim name of the response assessment. The value in RSTEST cannot be longer than 40 characters. Examples: Target Response, Non-target Response, Overall Response, Best Overall Response, Non-radiological progression (i.e. Symptomatic deterioration)",FINDINGS,__TEST,Y,,Y,,RSCAT,,V,,,,
,APRS,RSCAT,Category for Assessment,200,C,60,,text,CCCAT,Y,Exp,Assigned,Assigned,Sponsor,Grouping Qualifier,(ONCRSCAT)|(CCCAT),,UPPERCASE,,,RSCAT is used to identify the criteria used in the assessment of response and a version number if appropriate,FINDINGS,__CAT,Y,,Y,,,,,,,,
,APRS,RSSCAT,Subcategory,210,C,60,,text,,,Perm,,Assigned,Sponsor,Grouping Qualifier,*,,UPPERCASE,,,Used to define a further categorization of --CAT values. Example: DIFFERENTIAL.,FINDINGS,__SCAT,Y,,Y,,,,,,,,
,APRS,RSORRES,Result or Finding in Original Units,220,C,200,,text,,,Exp,,,,Result Qualifier,,,UPPERCASE,,,"Result of the Response assessment as originally received, collected, or calculated.",FINDINGS,__ORRES,Y,,Y,,,,,,,,
,APRS,RSORRESU,Original Units,230,C,40,,text,UNIT,,Perm,,,,Variable Qualifier,(UNIT),,MIXEDCASE,,,Original units in which the data were collected. Unit for RSORRES.,FINDINGS,__ORRESU,,unitcoll,Y,,,,,,,,
,APRS,RSSTRESC,Character Result/Finding in Std Format,240,C,200,,text,ONCRSR,,Exp,Derived,Derived,Sponsor,Record Qualifier,(ONCRSR),Finding in Original Units converted to SI unit,UPPERCASE,,,"Contains the result value for the response assessment, copied or derived from RSORRES in a standard format or standard units. RSSTRESC should store all results or findings in character format;",FINDINGS,__STRESC,Y,"coalescec(rsstresc,rsorres)",Y,,,,,,40,sdtme_std_strescnu_v$$,
,APRS,RSSTRESN,Numeric Result/Finding in Standard Units,250,N,8,8.3,float,,,Perm,Derived,Derived,Sponsor,Result Qualifier,,Finding in Original Units converted to SI unit,,,,Used for continuous or numeric results or findings in standard format; copied in numeric format from RSSTRESC. RSSTRESN should store all numeric test results or findings.,FINDINGS,__STRESN,,,,,,,,,40,sdtme_std_strescnu_v$$,
,APRS,RSSTRESU,Standard Units,260,C,40,,text,UNIT,,Perm,Assigned,Assigned,Sponsor,Variable Qualifier,(UNIT),,MIXEDCASE,,SI unit,Standardized unit used for RSSTRESC and RSSTRESN.,FINDINGS,__STRESU,,,,,,,,,40,sdtme_std_strescnu_v$$,
,APRS,RSSTAT,Completion Status,270,C,40,,text,ND,,Perm,Derived,Derived,Sponsor,Result Qualifier,(ND),"Set to NOT DONE if 'ND', 'NA', 'NK' ,' ' have been reported on CRF",UPPERCASE,,,Used to indicate the response assessment was not performed. Should be Null if a result exists in RSORRES.,FINDINGS,__STAT,Y,,Y,,,,,,,,
,APRS,RSREASND,Reason Not Done,280,C,200,,text,,,Perm,,,,Record Qualifier,,,UPPERCASE,,,"Describes why a response assessment was not performed. Examples: All target tumors not evaluated, Subject does not have non-target tumors. Used in conjunction with TRSTAT when value is NOT DONE.",FINDINGS,__REASND,Y,,Y,,,,,,,,
,APRS,RSNAM,Vendor Name,290,C,40,,text,,,Perm,,,,Record Qualifier,,,UPPERCASE,,,The name or identifier of the vendor that performed the response assessment. This column can be left Null when the Investigator provides the complete set of data in the domain.,FINDINGS,__NAM,Y,,Y,,,,,,,,
,APRS,RSLOBXFL,Last Observation Before Exposure Flag,300,C,1,,text,NY,,Perm,Derived,Derived,Sponsor,Record Qualifier,(NY),Set to 'Y' when the record contains the last non-missing value prior to RFXSTDTC.,UPPERCASE,,,"Operationally-derived indicator used to identify the last non-missing value prior to RFXSTDTC. The value should be ""Y"" or null.",FINDINGS,__LOBXFL,,,,,,,,,,,Y
,APRS,RSBLFL,Baseline Flag,310,C,2,,text,NY,,Perm,Derived,Derived,Sponsor,Record Qualifier,(NY),Baseline flag set to Y when the assessment is collected at the visit marked as baseline in the trial flowchart,UPPERCASE,,,"Indicator used to identify a baseline value. The value should be ""Y"" or null.",FINDINGS,__BLFL,,,,,,,,,15,sdtme_std_blfl_v$$,Y
,APRS,RSDRVFL,Derived Flag,320,C,2,,text,NY,,Perm,,,,Record Qualifier,(NY),,UPPERCASE,,,"Used to indicate a derived record. The value should be Y or null. Records that represent the average of other records or questionnaire sub-scores that do not come from the CRF are examples of records that would be derived for the submission datasets. If QSDRVFL=Y, then QSORRES may be null with QSSTRESC and (if numeric) QSSTRESN having the derived value.",FINDINGS,__DRVFL,,,,,,,,,,,Y
,APRS,RSEVAL,Evaluator,330,C,40,,text,EVAL,,Perm,,,,Record Qualifier,(EVAL),,UPPERCASE,,,"Role of the person who provided the evaluation. Examples: INVESTIGATOR, INDEPENDENT ASSESSOR. This column can be left Null when the Investigator provides the complete set of data in the domain. However the column should contain no Null values when data from one or more independent assessors is included meaning that the rows attributed to the Investigator should contain a value of INVESTIGATOR.",FINDINGS,__EVAL,Y,,Y,,,,,,,,
,APRS,RSEVALID,Evaluator Identifier,340,C,40,,text,MEDEVAL,,Perm,,,,Variable Qualifier,(MEDEVAL),,UPPERCASE,,,"The Evaluator Specified variable is used in conjunction with RSEVAL to provide an additional level of detail. When multiple assessors play the role identified in RSEVAL, values of RSEVALID will attribute a row of data to a particular assessor. RSEVALID should not contain the names of the assessors, or a code identifier for a specific assessor. The RSEVALID variable is subject to CDISC Controlled Terminology. Examples: RADIOLOGIST, RADIOLOGIST 1 or RADIOLOGIST 2. See Assumption 4",FINDINGS,__EVALID,Y,,Y,,,,,,,,
,APRS,RSACPTFL,Accepted Record Flag,350,C,2,,text,NY,,Perm,,,,Record Qualifier,(NY),,UPPERCASE,,,"In cases where more than one independent assessor (e.g. RADIOLOGIST 1, RADIOLOGIST 2, ADJUDICATOR) provides an evaluation of response this flag identifies the record that is considered to be the accepted evaluation.",FINDINGS,__ACPTFL,Y,,Y,,,,,,,,
,APRS,RSREPNUM,Repetition Number,360,N,8,,integer,,,Perm,,,,Record Qualifier,,,,,,"The incidence number of a test that is repeated within a given timeframe for the same test. The level of granularity can vary, e.g., within a time point or within a visit. For example, multiple measurements of blood pressure or multiple analyses of a sample.",FINDINGS,__REPNUM,Y,,Y,,,,,,,,
,APRS,ETCD,Element Code,370,C,8,,text,,,Req,Assigned,Assigned,Sponsor,Record Qualifier,*,,UPPERCASE,,Set based on the SE domain,"ETCD (the companion to ELEMENT) is limited to 8 characters and does not have special character restrictions. These values should be short for ease of use in programming, but it is not expected that ETCD will need to serve as a variable name.",NN DEFINED,ETCD,,,,,,,,,60,sdtme_std_etcd_v$$,
,APRS,ELEMENT,Description of Element,380,C,40,,text,,,Req,Protocol,Protocol,Sponsor,Record Qualifier,*,,UPPERCASE,,Set based on the SE domain,The name of the Element.,NN DEFINED,ELEMENT,,,,,,,,,60,sdtme_std_etcd_v$$,
,APRS,VISITNUM,Visit Number,390,N,8,9.3,float,,,Exp,Protocol,Protocol,Sponsor,Timing,,,,,,"1. Clinical encounter number. 2. Numeric version of VISIT, used for sorting.",TIMING,VISITNUM,Y,,Y,,,,,,,,
,APRS,VISIT,Visit Name,400,C,40,,text,,,Perm,Protocol,Protocol,Sponsor,Timing,,,UPPERCASE,,,1. Protocol-defined description of clinical encounter. 2. May be used in addition to VISITNUM and/or VISITDY.,TIMING,VISIT,,,,,,,,,20,sdtme_std_visit_v$$,
,APRS,VISITDY,Planned Study Day of Visit,410,N,8,,integer,,,Perm,Assigned,Assigned,Sponsor,Timing,,,,,Based on TV.VISITDY,,TIMING,VISITDY,,,,,,,,,30,sdtme_std_visitdy_v$$,
,APRS,TAETORD,Planned Order of Element within Arm,420,N,8,,integer,,,Perm,Protocol,Protocol,Sponsor,Timing,,,,,,Number that gives the planned order of the Element within the Arm for the element in which the assessment was made,TIMING,TAETORD,,,,,,,,,,,
,APRS,EPOCH,Epoch,430,C,40,,text,EPOCH,,Perm,Protocol,Protocol,Sponsor,Timing,(EPOCH),,UPPERCASE,,Set based on the SE domain,Epoch associated with the Element in the planned sequence of Elements for the ARM to which the subject was assigned,TIMING,EPOCH,,,,,,,,,50,sdtme_std_epoch_v$$,
,APRS,RSDTC,Date/Time of Assessment,440,C,64,,datetime,,,Exp,,Collected,,Timing,ISO 8601,,UPPERCASE DATETIME,,,"RSDTC may be derived from the dates of scans/images/physical exams which may be performed on different dates. However, if all assessments are performed on the same date, RSDTC may be consistent with the TUDTC and TRDTC. Note the physical exam date may correspond to the visit date.",TIMING,__DTC,Y,,Y,,,,,,,,
,APRS,RSSTDTC,Start Date/Time of Observation,450,C,64,,datetime,,,Perm,,,,Timing,ISO 8601,,UPPERCASE DATETIME,,,Start date/time of an observation.,NN DEFINED,__STDTC,Y,,Y,,,,,,,,
,APRS,RSENDTC,End Date/Time of Observation,460,C,64,,datetime,,,Perm,,Collected,,Timing,ISO 8601,,UPPERCASE DATETIME,,,End date/time of the observation represented in IS0 8601 character format.,TIMING,__ENDTC,Y,,Y,,,,,,,,
,APRS,RSDY,Study Day of Assessment,470,N,8,,integer,,,Perm,Derived,Derived,Sponsor,Timing,,If RSDTC GE RFSTDTC then RSDY=RSDTC-RFSTDTC+1; otherwise RSDY=RSDTC-RFSTDTC.,,,,"1. Study day of the response assessment, measured as integer days. 2. Algorithm for calculations must be relative to the sponsor-defined RFSTDTC variable in Demographics.",TIMING,__DY,,,,,,,,,10,sdtme_std_dy_v$$,
,APRS,RSSTDY,Study Day of Start of Observation,480,N,8,,integer,,,Perm,Derived,Derived,Sponsor,Timing,,if SRSTDTC GE RFSTDTC then SRSTDY=SRSTDTC-RFSTDTC+1; otherwise SRSTDY=SRSTDTC-RFSTDTC.,,,,Actual study day of start of observation expressed in integer days relative to the sponsor-defined RFSTDTC in Demographics.,TIMING,__STDY,,,,,,,,,,,
,APRS,RSENDY,Study Day of End of Observation,490,N,8,,integer,,,Perm,Derived,Derived,Sponsor,Timing,,If RSENDTC GE RFSTDTC then RSENDY=RSENDTC-RFSTDTC+1; otherwise RSENDY=RSENDTC-RFSTDTC.,,,,Actual study day of end of observation expressed in integer days relative to the sponsor-defined RFSTDTC in Demographics.,TIMING,__ENDY,,,,,,,,,10,sdtme_std_dy_v$$,
,APRS,RSTPT,Planned Time Point Name,500,C,80,,text,,,Perm,,,,Timing,,,UPPERCASE,,,"Text description of time when a measurement or observation should be taken as defined in the protocol. This may be represented as an elapsed time relative to a fixed reference point, such as time of last dose. See --TPTNUM and -- TPTREF.",TIMING,__TPT,Y,,Y,,,,,,110,sdtme_std_tpt_v$$,
,APRS,RSTPTNUM,Planned Time Point Number,510,N,8,8.1,float,,,Perm,,,,Timing,,,,,,Numeric version of planned time point used in sorting.,TIMING,__TPTNUM,Y,,Y,,,,,,110,sdtme_std_tpt_v$$,
,APRS,RSELTM,Planned Elapsed Time from Time Point Ref,520,C,64,,durationDatetime,,,Perm,,,,Timing,ISO 8601,,UPPERCASE DURATION,,,"Planned Elapsed time in ISO 8601 character format relative to a planned fixed reference (--TPTREF) such as ""Previous Dose"" or ""Previous Meal"". This variable is useful where there are repetitive measures. Not a clock time or a date/time variable, but an interval, represented as ISO duration.",TIMING,__ELTM,Y,,Y,,,,,,,,
,APRS,RSTPTREF,Time Point Reference,530,C,80,,text,,,Perm,,,,Timing,,,UPPERCASE,,,"Description of the fixed reference point referred to by --ELTM, --TPTNUM, and --TPT. Examples: PREVIOUS DOSE, PREVIOUS MEAL.",TIMING,__TPTREF,Y,,Y,,,,,,110,sdtme_std_tpt_v$$,
,APRS,RSRFTDTC,Date/Time of Reference Time Point,540,C,64,,datetime,,,Perm,,,,Timing,ISO 8601,,UPPERCASE DATETIME,,,Date/time for a fixed reference time point defined by --TPTREF in ISO 8601 character format.,TIMING,__RFTDTC,Y,,Y,,,,,,,,
,APRS,RSEVLINT,Evaluation Interval,550,C,64,,durationDatetime,,,Perm,CRF,Collected,Investigator,Timing,ISO 8601,,UPPERCASE DURATION,,,,TIMING,__EVLINT,Y,,Y,,,,,,,,
,APRS,RSEVINTX,Evaluation Interval Text,560,C,40,,text,,,Perm,CRF,Collected,Investigator,Timing,,,UPPERCASE,,,"Evaluation interval associated with an observation, where the interval is not able to be represented in ISO 8601 format. Examples: LIFETIME, LAST NIGHT, RECENTLY, OVER THE LAST FEW WEEKS.",TIMING,__EVINTX,Y,,Y,,,,,,,,
,APRS,RSSTRTPT,Start Relative to Reference Time Point,570,C,40,,text,STENRF,,Perm,Assigned,Assigned,Sponsor,Timing,(STENRF),,UPPERCASE,,,,TIMING,__STRTPT,Y,,Y,,,,,,,,BEFORE|COINCIDENT|AFTER|U
,APRS,RSSTTPT,Start Reference Time Point,580,C,40,,text,,,Perm,Assigned,Assigned,Sponsor,Timing,,,UPPERCASE,,,,TIMING,__STTPT,Y,,Y,,,,,,,,
,APRS,RSENRTPT,End Relative to Reference Time Point,590,C,40,,text,STENRF,,Perm,Assigned,Assigned,Sponsor,Timing,(STENRF),,UPPERCASE,,,Identifies the end of the event as being before or after the reference time point defined by variable MHENTPT.,TIMING,__ENRTPT,Y,,Y,,,,,,,,BEFORE|COINCIDENT|AFTER|ONGOING|U
,APRS,RSENTPT,End Reference Time Point,600,C,40,,text,,,Perm,Assigned,Assigned,Sponsor,Timing,,,UPPERCASE,,,"Description or date/time in ISO 8601 character format of the reference point referred to by MHENRTPT. Examples: ""2003-12-25"" or ""VISIT 2"".",TIMING,__ENTPT,Y,,Y,,,,,,,,
,APSC,SRC_FIND_COLL_UNIT,CDW SRC Finding Collection Unit,10,C,80,,text,,,Perm,,,,Record Qualifier,,,,,,,NN DEFINED,SRC_FIND_COLL_UNIT,,unitcoll,Y,Y,,,,,,,
,APSC,TOPIC_CD,CDW Topic Code,20,C,80,,text,,,Perm,,,,Topic,,,,,,,NN DEFINED,TOPIC_CD,,topiccd,Y,Y,,,,,,,
Y,APSC,STUDYID,Study Identifier,30,C,40,,text,,,Req,Protocol,Protocol,Sponsor,Identifier,,,UPPERCASE,,,Unique identifier for a study.,IDENTIFIERS,STUDYID,*,,Y,,,,,,,,
Y,APSC,DOMAIN,Domain Abbreviation,40,C,8,,text,DOMAIN,,Req,Assigned,Assigned,Sponsor,Identifier,APSC,,UPPERCASE,,,"Four-character abbreviation for the domain, AP--.",IDENTIFIERS,DOMAIN,*,,Y,,,,,,,,
,APSC,USUBJID,Unique Subject Identifier,50,C,60,,text,,,Req,Assigned,Assigned,Sponsor,Identifier,,,UPPERCASE,,Concatenation of STUDYID and DM.SUBJID,Identifier used to uniquely identify a subject across all studies for all applications or submissions involving the product.,NN DEFINED,USUBJID,*,,Y,,,,,,,,
Y,APSC,APID,Associated Persons Identifier,60,C,60,,text,,,Req,Assigned,Assigned,Sponsor,Identifier,,,UPPERCASE,,,"Identifier for a single associated person, a group of associated persons, or a pool of associated persons. If APID identifies a pool, POOLDEF records must exist for each associated person.",IDENTIFIERS,APID,Y,,Y,,,,,,,,
Y,APSC,SCSEQ,Sequence Number,70,N,8,,integer,,,Req,Assigned,Assigned,Sponsor,Identifier,,,,,,Sequence number to ensure uniqueness of records within a domain for associated persons. Unique within APID within the domain.,IDENTIFIERS,__SEQ,*,,Y,,,,,,,,
Y,APSC,RSUBJID,Related Subject,80,C,60,,text,,,Exp,CRF,Collected,Investigator,Record Qualifier,,,UPPERCASE,,,Identifier for a related study subject or pool of study subjects. The subject(s) may be human or animal. RSUBJID will be populated with the USUBJID of the related subject or the POOLID of the related pool. RSUBJID will be null for data about associated persons who are related to the study but not to any of the study subjects.,IDENTIFIERS,RSUBJID,Y,,Y,,,,,,,,
Y,APSC,RDEVID,Related Device,90,C,40,,text,,,Perm,CRF,Collected,Investigator,Record Qualifier,,,UPPERCASE,,,Identifier for a related device. RDEVID will be populated with the SPDEVID of the related device.,IDENTIFIERS,RDEVID,Y,,Y,,,,,,,,
Y,APSC,SREL,"Subject, Device, or Study Relationship",100,C,40,,text,RELSUB,,Req,CRF,Collected,Investigator,Record Qualifier,(RELSUB),,UPPERCASE,,,"If RSUBJID is populated, describes the relationship of the associated person(s) identified in APID to the subject or pool identified in RSUBJID. If RDEVID is populated, describes the relationship of the associated person(s) identified in APID to the device identified in RDEVID. If RSUBJID and RDEVID are null, SREL describes the relationship of the associated person(s) identified in APID to the study identified in STUDYID.",IDENTIFIERS,SREL,Y,,Y,,,,,,,,
,APSC,SCGRPID,Group ID,110,C,60,,text,,,Perm,Assigned,Assigned,Sponsor,Identifier,,,UPPERCASE,,,Used to tie together a block of related records in a single domain for a subject.,IDENTIFIERS,__GRPID,Y,,Y,,,,,,,,
,APSC,SCSPID,Sponsor-Defined Identifier,120,C,40,,text,,,Perm,Assigned,Assigned,Sponsor,Identifier,,,UPPERCASE,,Sponsor-defined identifier. Example: pre-printed line identifier on a Concomitant Medications page.,Sponsor-defined identifier. Example: pre-printed line identifier on a Concomitant Medications page.,IDENTIFIERS,__SPID,*,,Y,,,,,,,,
,APSC,APSCSPID,Sponsor-Defined Identifier,130,C,40,,text,,,Perm,Assigned,Assigned,Sponsor,Identifier,,,UPPERCASE,,"System generated unique identifier, required for Enriched SDTM generation.",,IDENTIFIERS,__SPID,*,,Y,Y,,,,,,,
,APSC,SCLNKID,Link ID,140,C,60,,text,,,Perm,Assigned,Assigned,Sponsor,Identifier,,,UPPERCASE,,,Identifier used to link related records across domains. This may be a one-to- one or a one-to-many relationship. For Example: A single tumor may have multiple measurements/assessments performed at each study visit.,IDENTIFIERS,__LNKID,Y,,Y,,,,,,,,
,APSC,SCLNKGRP,Link Group ID,150,C,60,,text,,,Perm,Assigned,Assigned,Sponsor,Identifier,,,UPPERCASE,,,Identifier used to link related records across domains. This will usually be a many-to-one relationship. For example: Multiple tumor measurements/assessments will contribute to a single response to therapy determination record.,IDENTIFIERS,__LNKGRP,Y,,Y,,,,,,,,
,APSC,SCTESTCD,Subject Characteristic Short Name,160,C,8,,text,SCTESTCD,,Req,Assigned,Assigned,Sponsor,Topic,(SCTESTCD),,UPPERCASE,,,"Short name of the measurement, test, or examination described in SCTEST. It can be used as a column name when converting a dataset from a vertical to a horizontal format. The value in SCTESTCD cannot be longer than 8 characters, nor can it start with a number (e.g.""1TEST""). SCTESTCD cannot contain characters other than letters, numbers, or underscores. Example: MARISTAT, NATORIG.",FINDINGS,__TESTCD,Y,,Y,,,,,,,,
,APSC,SCTEST,Subject Characteristic,170,C,40,,text,SCTEST,,Req,Assigned,Assigned,Sponsor,Synonym Qualifier,(SCTEST),,MIXEDCASE,,,"Verbatim name of the test or examination used to obtain the measurement or finding. The value in SCTEST cannot be longer than 40 characters. Examples: Marital Status, National Origin.",FINDINGS,__TEST,Y,,Y,,,,,,,,
,APSC,SCCAT,Category for Subject Characteristic,180,C,60,,text,,,Perm,Assigned,Assigned,Sponsor,Grouping Qualifier,*,,UPPERCASE,,,Used to define a category of related records.,FINDINGS,__CAT,Y,,Y,,,,,,,,
,APSC,SCSCAT,Subcategory for Subject Characteristic,190,C,60,,text,,,Perm,Assigned,Assigned,Sponsor,Grouping Qualifier,*,,UPPERCASE,,,A further categorization of the subject characteristic.,FINDINGS,__SCAT,Y,,Y,,,,,,,,
,APSC,SCORRES,Result or Finding in Original Units,200,C,200,,text,,,Exp,,,,Result Qualifier,,,UPPERCASE,,,Result of the subject characteristic as originally received or collected.,FINDINGS,__ORRES,Y,,Y,,,,,,,,
,APSC,SCORRESU,Original Units,210,C,40,,text,UNIT,,Perm,,,,Variable Qualifier,(UNIT),,MIXEDCASE,,,Original Unit in which the data were collected. The unit for SCORRES.,FINDINGS,__ORRESU,,unitcoll,Y,,,,,,,,
