{
  "formatVersion": "synthetic-native-ct-readings/1",
  "scope": "Exact primary CDISC term subsets used as isolated native package/name readings; not a complete terminology package or CORE validation report.",
  "packages": [
    {
      "uid": "DDF CT 2025-09-26",
      "sourceFile": "ddfct-2025-09-26.json",
      "sourceSha256": "986d01ce424d40cbc69c2e8eba65e75e26b46fcb79cd22064a236b512ba0bf1f",
      "package": "ddfct-2025-09-26",
      "terms": [
        {
          "codelist": {
            "conceptId": "C188728",
            "name": "Encounter Type Value Set Terminology",
            "submissionValue": "Encounter Type Value Set Terminology"
          },
          "term": {
            "conceptId": "C25716",
            "definition": "The act of going to see some person or place or thing; it can cover a short or long period but refers to a non-permanent arrangement.",
            "preferredTerm": "Visit",
            "submissionValue": "Visit",
            "synonyms": []
          }
        },
        {
          "codelist": {
            "conceptId": "C188727",
            "name": "Study Arm Data Origin Type Value Set Terminology",
            "submissionValue": "Study Arm Data Origin Type Value Set Terminology"
          },
          "term": {
            "conceptId": "C176263",
            "definition": "Data that are artificially created rather than being generated by actual events. NOTE: Data are often created with the help of algorithms and used for a wide range of activities, including as test data for new products and tools, for model validation, and in AI optimization. [After The Ultimate Guide to Synthetic Data in 2020, August 29, 2020]. See also artificial intelligence.",
            "preferredTerm": "Synthetic Data",
            "submissionValue": "Synthetic Data",
            "synonyms": []
          }
        },
        {
          "codelist": {
            "conceptId": "C188724",
            "name": "Organization Type Value Set Terminology",
            "submissionValue": "Organization Type Value Set Terminology"
          },
          "term": {
            "conceptId": "C93453",
            "definition": "An organization (typically a government agency) that administers the registration of studies. (BRIDG)",
            "preferredTerm": "Study Registry",
            "submissionValue": "Clinical Study Registry",
            "synonyms": []
          }
        },
        {
          "codelist": {
            "conceptId": "C188724",
            "name": "Organization Type Value Set Terminology",
            "submissionValue": "Organization Type Value Set Terminology"
          },
          "term": {
            "conceptId": "C188863",
            "definition": "An organization (typically a government agency) that is responsible for implementing and enforcing laws, licensing and regulating products and services, promoting the use of standards, and ensuring safety and consumer protections.",
            "preferredTerm": "Regulatory Agency",
            "submissionValue": "Regulatory Agency",
            "synonyms": [
              "Regulator",
              "Regulatory Body"
            ]
          }
        },
        {
          "codelist": {
            "conceptId": "C215477",
            "name": "Study Definition Document Type Value Set Terminology",
            "submissionValue": "Study Definition Document Type Value Set Terminology"
          },
          "term": {
            "conceptId": "C70817",
            "definition": "The formal plan of an experiment or research activity, including the objective, rationale, design, materials and methods for the conduct of the study, intervention description, and method of data analysis.",
            "preferredTerm": "Study Protocol",
            "submissionValue": "Protocol",
            "synonyms": []
          }
        },
        {
          "codelist": {
            "conceptId": "C188723",
            "name": "Study Definition Document Version Value Set Terminology",
            "submissionValue": "Study Definition Document Version Value Set Terminology"
          },
          "term": {
            "conceptId": "C85255",
            "definition": "A preliminary version of a written work, design, or picture.",
            "preferredTerm": "Draft",
            "submissionValue": "Draft",
            "synonyms": []
          }
        },
        {
          "codelist": {
            "conceptId": "C188723",
            "name": "Study Definition Document Version Value Set Terminology",
            "submissionValue": "Study Definition Document Version Value Set Terminology"
          },
          "term": {
            "conceptId": "C25508",
            "definition": "Conclusive in a process or progression.",
            "preferredTerm": "Final",
            "submissionValue": "Final",
            "synonyms": []
          }
        },
        {
          "codelist": {
            "conceptId": "C207416",
            "name": "Study Design Characteristics Value Set Terminology",
            "submissionValue": "Study Design Characteristics Value Set Terminology"
          },
          "term": {
            "conceptId": "C98704",
            "definition": "A study design that allows for prospectively planned modifications to one or more aspects of the design based on accumulating data from subjects in the trial. (FDA)",
            "preferredTerm": "Adaptive Design",
            "submissionValue": "Adaptive",
            "synonyms": []
          }
        },
        {
          "codelist": {
            "conceptId": "C207416",
            "name": "Study Design Characteristics Value Set Terminology",
            "submissionValue": "Study Design Characteristics Value Set Terminology"
          },
          "term": {
            "conceptId": "C207613",
            "definition": "A study design in which subjects enrolled in one study are subsequently continued into a related study for longer term safety, tolerability, and/or effectiveness monitoring.",
            "preferredTerm": "Extension Study Design",
            "submissionValue": "Extension",
            "synonyms": [
              "Roll-over Study"
            ]
          }
        },
        {
          "codelist": {
            "conceptId": "C207416",
            "name": "Study Design Characteristics Value Set Terminology",
            "submissionValue": "Study Design Characteristics Value Set Terminology"
          },
          "term": {
            "conceptId": "C46079",
            "definition": "A study design in which interventions are assigned to subjects according to randomization principles.",
            "preferredTerm": "Randomized Controlled Clinical Trial",
            "submissionValue": "Randomized",
            "synonyms": []
          }
        },
        {
          "codelist": {
            "conceptId": "C215480",
            "name": "Study Role Code Value Set Terminology",
            "submissionValue": "Study Role Code Value Set Terminology"
          },
          "term": {
            "conceptId": "C188863",
            "definition": "An organization (typically a government agency) that is responsible for implementing and enforcing laws, licensing and regulating products and services, promoting the use of standards, and ensuring safety and consumer protections.",
            "preferredTerm": "Regulatory Agency",
            "submissionValue": "Regulatory Agency",
            "synonyms": [
              "Regulator",
              "Regulatory Body"
            ]
          }
        },
        {
          "codelist": {
            "conceptId": "C207419",
            "name": "Study Title Type Value Set Terminology",
            "submissionValue": "Study Title Type Value Set Terminology"
          },
          "term": {
            "conceptId": "C207615",
            "definition": "The short descriptive name for the study.",
            "preferredTerm": "Brief Study Title",
            "submissionValue": "Brief Study Title",
            "synonyms": [
              "Abbreviated Protocol Title"
            ]
          }
        },
        {
          "codelist": {
            "conceptId": "C207419",
            "name": "Study Title Type Value Set Terminology",
            "submissionValue": "Study Title Type Value Set Terminology"
          },
          "term": {
            "conceptId": "C207616",
            "definition": "The formal descriptive name for the study.",
            "preferredTerm": "Official Study Title",
            "submissionValue": "Official Study Title",
            "synonyms": []
          }
        },
        {
          "codelist": {
            "conceptId": "C207419",
            "name": "Study Title Type Value Set Terminology",
            "submissionValue": "Study Title Type Value Set Terminology"
          },
          "term": {
            "conceptId": "C207646",
            "definition": "A word or words formed from the beginning letters or a combination of syllables and letters of a compound term, which identifies a clinical study.",
            "preferredTerm": "Study Acronym",
            "submissionValue": "Study Acronym",
            "synonyms": [
              "Trial Acronym"
            ]
          }
        },
        {
          "codelist": {
            "conceptId": "C201265",
            "name": "Timing Relative To From Value Set Terminology",
            "submissionValue": "Timing Relative To From Value Set Terminology"
          },
          "term": {
            "conceptId": "C201355",
            "definition": "A timing relationship defined as the start of one event to the start of another event.",
            "preferredTerm": "Start to Start",
            "submissionValue": "Start to Start",
            "synonyms": []
          }
        },
        {
          "codelist": {
            "conceptId": "C201264",
            "name": "Timing Type Value Set Terminology",
            "submissionValue": "Timing Type Value Set Terminology"
          },
          "term": {
            "conceptId": "C201356",
            "definition": "A type of time point relationship that follows a point or period of time within a timeline.",
            "preferredTerm": "After Timing Type",
            "submissionValue": "After",
            "synonyms": []
          }
        },
        {
          "codelist": {
            "conceptId": "C201264",
            "name": "Timing Type Value Set Terminology",
            "submissionValue": "Timing Type Value Set Terminology"
          },
          "term": {
            "conceptId": "C201357",
            "definition": "A type of time point relationship that comes before a point or period of time within a timeline.",
            "preferredTerm": "Before Timing Type",
            "submissionValue": "Before",
            "synonyms": []
          }
        },
        {
          "codelist": {
            "conceptId": "C201264",
            "name": "Timing Type Value Set Terminology",
            "submissionValue": "Timing Type Value Set Terminology"
          },
          "term": {
            "conceptId": "C201358",
            "definition": "A type of time point relationship that is fixed with respect to a timeline.",
            "preferredTerm": "Fixed Reference Timing Type",
            "submissionValue": "Fixed Reference",
            "synonyms": []
          }
        }
      ]
    },
    {
      "uid": "SDTM CT 2025-09-26",
      "sourceFile": "sdtmct-2025-09-26.json",
      "sourceSha256": "671937e2383b44e6165e0dc9f3eb9dd73388671647c60c9dca0c93e39b98bf42",
      "package": "sdtmct-2025-09-26",
      "terms": [
        {
          "codelist": {
            "conceptId": "C66781",
            "name": "Age Unit",
            "submissionValue": "AGEU"
          },
          "term": {
            "conceptId": "C25301",
            "definition": "A unit of measurement of time equal to 24 hours.",
            "preferredTerm": "Day",
            "submissionValue": "DAYS",
            "synonyms": []
          }
        },
        {
          "codelist": {
            "conceptId": "C66781",
            "name": "Age Unit",
            "submissionValue": "AGEU"
          },
          "term": {
            "conceptId": "C29846",
            "definition": "One of the 12 divisions of a year as determined by a calendar. It corresponds to the unit of time of approximately to one cycle of the moon's phases, about 30 days or 4 weeks. (NCI)",
            "preferredTerm": "Month",
            "submissionValue": "MONTHS",
            "synonyms": [
              "Month"
            ]
          }
        },
        {
          "codelist": {
            "conceptId": "C66781",
            "name": "Age Unit",
            "submissionValue": "AGEU"
          },
          "term": {
            "conceptId": "C29844",
            "definition": "Any period of seven consecutive days. (NCI)",
            "preferredTerm": "Week",
            "submissionValue": "WEEKS",
            "synonyms": [
              "Week"
            ]
          }
        },
        {
          "codelist": {
            "conceptId": "C66781",
            "name": "Age Unit",
            "submissionValue": "AGEU"
          },
          "term": {
            "conceptId": "C29848",
            "definition": "The period of time that it takes for Earth to make a complete revolution around the sun, approximately 365 days; a specific one year period. (NCI)",
            "preferredTerm": "Year",
            "submissionValue": "YEARS",
            "synonyms": [
              "Year"
            ]
          }
        },
        {
          "codelist": {
            "conceptId": "C99079",
            "name": "Epoch",
            "submissionValue": "EPOCH"
          },
          "term": {
            "conceptId": "C101526",
            "definition": "A period in a study during which subjects are receiving investigational therapy or treatment.",
            "preferredTerm": "Treatment Epoch",
            "submissionValue": "TREATMENT",
            "synonyms": []
          }
        },
        {
          "codelist": {
            "conceptId": "C99076",
            "name": "Intervention Model Response",
            "submissionValue": "INTMODEL"
          },
          "term": {
            "conceptId": "C82639",
            "definition": "A trial design in which subjects are randomised to one of two or more arms, with each arm being allocated a different intervention for the duration of the study.",
            "preferredTerm": "Parallel Study",
            "submissionValue": "PARALLEL",
            "synonyms": []
          }
        },
        {
          "codelist": {
            "conceptId": "C85494",
            "name": "PK Units of Measure",
            "submissionValue": "PKUNIT"
          },
          "term": {
            "conceptId": "C25301",
            "definition": "A unit of measurement of time equal to 24 hours.",
            "preferredTerm": "Day",
            "submissionValue": "day",
            "synonyms": []
          }
        },
        {
          "codelist": {
            "conceptId": "C66731",
            "name": "Sex",
            "submissionValue": "SEX"
          },
          "term": {
            "conceptId": "C16576",
            "definition": "A person who belongs to the sex that normally produces ova. The term is used to indicate biological sex distinctions, or cultural gender role distinctions, or both. [The NCI Thesaurus contains biomedical terminologies that NCI does not own or control. This concept contains gender-related content that does not comply with Executive Order 14168.]",
            "preferredTerm": "Female",
            "submissionValue": "F",
            "synonyms": [
              "Female"
            ]
          }
        },
        {
          "codelist": {
            "conceptId": "C66731",
            "name": "Sex",
            "submissionValue": "SEX"
          },
          "term": {
            "conceptId": "C20197",
            "definition": "A person who belongs to the sex that normally produces sperm. The term is used to indicate biological sex distinctions, cultural gender role distinctions, or both. [The NCI Thesaurus contains biomedical terminologies that NCI does not own or control. This concept contains gender-related content that does not comply with Executive Order 14168.]",
            "preferredTerm": "Male",
            "submissionValue": "M",
            "synonyms": [
              "Male"
            ]
          }
        },
        {
          "codelist": {
            "conceptId": "C209287",
            "name": "Sex Assigned At Birth Response",
            "submissionValue": "SEXABRTH"
          },
          "term": {
            "conceptId": "C16576",
            "definition": "A person who belongs to the sex that normally produces ova. The term is used to indicate biological sex distinctions, or cultural gender role distinctions, or both. [The NCI Thesaurus contains biomedical terminologies that NCI does not own or control. This concept contains gender-related content that does not comply with Executive Order 14168.]",
            "preferredTerm": "Female",
            "submissionValue": "FEMALE",
            "synonyms": [
              "Female"
            ]
          }
        },
        {
          "codelist": {
            "conceptId": "C209287",
            "name": "Sex Assigned At Birth Response",
            "submissionValue": "SEXABRTH"
          },
          "term": {
            "conceptId": "C20197",
            "definition": "A person who belongs to the sex that normally produces sperm. The term is used to indicate biological sex distinctions, cultural gender role distinctions, or both. [The NCI Thesaurus contains biomedical terminologies that NCI does not own or control. This concept contains gender-related content that does not comply with Executive Order 14168.]",
            "preferredTerm": "Male",
            "submissionValue": "MALE",
            "synonyms": [
              "Male"
            ]
          }
        },
        {
          "codelist": {
            "conceptId": "C66732",
            "name": "Sex of Participants Response",
            "submissionValue": "SEXPOP"
          },
          "term": {
            "conceptId": "C49636",
            "definition": "One and the other; relating to or being two in conjunction. (NCI)",
            "preferredTerm": "Both",
            "submissionValue": "BOTH",
            "synonyms": []
          }
        },
        {
          "codelist": {
            "conceptId": "C66732",
            "name": "Sex of Participants Response",
            "submissionValue": "SEXPOP"
          },
          "term": {
            "conceptId": "C16576",
            "definition": "A person who belongs to the sex that normally produces ova. The term is used to indicate biological sex distinctions, or cultural gender role distinctions, or both. [The NCI Thesaurus contains biomedical terminologies that NCI does not own or control. This concept contains gender-related content that does not comply with Executive Order 14168.]",
            "preferredTerm": "Female",
            "submissionValue": "F",
            "synonyms": [
              "Female"
            ]
          }
        },
        {
          "codelist": {
            "conceptId": "C66732",
            "name": "Sex of Participants Response",
            "submissionValue": "SEXPOP"
          },
          "term": {
            "conceptId": "C20197",
            "definition": "A person who belongs to the sex that normally produces sperm. The term is used to indicate biological sex distinctions, cultural gender role distinctions, or both. [The NCI Thesaurus contains biomedical terminologies that NCI does not own or control. This concept contains gender-related content that does not comply with Executive Order 14168.]",
            "preferredTerm": "Male",
            "submissionValue": "M",
            "synonyms": [
              "Male"
            ]
          }
        },
        {
          "codelist": {
            "conceptId": "C99077",
            "name": "Study Type Response",
            "submissionValue": "STYPE"
          },
          "term": {
            "conceptId": "C98388",
            "definition": "Studies in which individuals are assigned by an investigator based on a protocol to receive specific interventions. Subjects may receive diagnostic, therapeutic or other types of interventions. The assignment of the intervention may or may not be random. The individuals are then followed and biomedical and/or health outcomes are assessed.",
            "preferredTerm": "Interventional Study",
            "submissionValue": "INTERVENTIONAL",
            "synonyms": []
          }
        },
        {
          "codelist": {
            "conceptId": "C99077",
            "name": "Study Type Response",
            "submissionValue": "STYPE"
          },
          "term": {
            "conceptId": "C16084",
            "definition": "Study in which the researchers observe the effect of a risk factor (e.g., exposure), diagnostic test, treatment or other covariate within a study population, and where the investigator does not assign specific interventions. (CDISC Glossary)",
            "preferredTerm": "Observational Study",
            "submissionValue": "OBSERVATIONAL",
            "synonyms": []
          }
        },
        {
          "codelist": {
            "conceptId": "C66735",
            "name": "Trial Blinding Schema Response",
            "submissionValue": "TBLIND"
          },
          "term": {
            "conceptId": "C49659",
            "definition": "A study in which subjects and study personnel know which intervention each subject is receiving.",
            "preferredTerm": "Open Label Study",
            "submissionValue": "OPEN LABEL",
            "synonyms": []
          }
        },
        {
          "codelist": {
            "conceptId": "C66736",
            "name": "Trial Intent Type Response",
            "submissionValue": "TINDTP"
          },
          "term": {
            "conceptId": "C49656",
            "definition": "A type of study designed to evaluate intervention(s) for treatment of disease, syndrome or condition.",
            "preferredTerm": "Treatment Study",
            "submissionValue": "TREATMENT",
            "synonyms": [
              "Therapy Trial"
            ]
          }
        },
        {
          "codelist": {
            "conceptId": "C66739",
            "name": "Trial Type Response",
            "submissionValue": "TTYPE"
          },
          "term": {
            "conceptId": "C49656",
            "definition": "A type of study designed to evaluate intervention(s) for treatment of disease, syndrome or condition.",
            "preferredTerm": "Treatment Study",
            "submissionValue": "TREATMENT",
            "synonyms": [
              "Therapy Trial"
            ]
          }
        },
        {
          "codelist": {
            "conceptId": "C71620",
            "name": "Unit",
            "submissionValue": "UNIT"
          },
          "term": {
            "conceptId": "C25301",
            "definition": "A unit of measurement of time equal to 24 hours.",
            "preferredTerm": "Day",
            "submissionValue": "DAYS",
            "synonyms": []
          }
        },
        {
          "codelist": {
            "conceptId": "C71620",
            "name": "Unit",
            "submissionValue": "UNIT"
          },
          "term": {
            "conceptId": "C29846",
            "definition": "One of the 12 divisions of a year as determined by a calendar. It corresponds to the unit of time of approximately to one cycle of the moon's phases, about 30 days or 4 weeks. (NCI)",
            "preferredTerm": "Month",
            "submissionValue": "MONTHS",
            "synonyms": [
              "Month"
            ]
          }
        },
        {
          "codelist": {
            "conceptId": "C71620",
            "name": "Unit",
            "submissionValue": "UNIT"
          },
          "term": {
            "conceptId": "C44278",
            "definition": "A single undivided thing occurring in the composition of something else; a unit representing equivalence with a reference measurement.",
            "preferredTerm": "Unit",
            "submissionValue": "U",
            "synonyms": [
              "Unit"
            ]
          }
        },
        {
          "codelist": {
            "conceptId": "C71620",
            "name": "Unit",
            "submissionValue": "UNIT"
          },
          "term": {
            "conceptId": "C29844",
            "definition": "Any period of seven consecutive days. (NCI)",
            "preferredTerm": "Week",
            "submissionValue": "WEEKS",
            "synonyms": [
              "Week"
            ]
          }
        },
        {
          "codelist": {
            "conceptId": "C71620",
            "name": "Unit",
            "submissionValue": "UNIT"
          },
          "term": {
            "conceptId": "C29848",
            "definition": "The period of time that it takes for Earth to make a complete revolution around the sun, approximately 365 days; a specific one year period. (NCI)",
            "preferredTerm": "Year",
            "submissionValue": "YEARS",
            "synonyms": [
              "Year"
            ]
          }
        },
        {
          "codelist": {
            "conceptId": "C66797",
            "name": "Category of Inclusion/Exclusion",
            "submissionValue": "IECAT"
          },
          "term": {
            "conceptId": "C25370",
            "definition": "List of characteristics in a protocol, any one of which makes a potential subject ineligible to participate in a study.",
            "preferredTerm": "Exclusion Criteria",
            "submissionValue": "EXCLUSION",
            "synonyms": []
          }
        },
        {
          "codelist": {
            "conceptId": "C66797",
            "name": "Category of Inclusion/Exclusion",
            "submissionValue": "IECAT"
          },
          "term": {
            "conceptId": "C25532",
            "definition": "The criteria in a protocol that prospective subjects must meet to be eligible to participate in a study.",
            "preferredTerm": "Inclusion Criteria",
            "submissionValue": "INCLUSION",
            "synonyms": []
          }
        }
      ]
    },
    {
      "uid": "PROTOCOL CT 2025-09-26",
      "sourceFile": "protocolct-2025-09-26.json",
      "sourceSha256": "818688d9046612e3b3b1f422cac52cbb1c2a7c8e9e92131dfd76baf5bc9560cb",
      "package": "protocolct-2025-09-26",
      "terms": [
        {
          "codelist": {
            "conceptId": "C99076",
            "name": "Intervention Model Response",
            "submissionValue": "INTMODEL"
          },
          "term": {
            "conceptId": "C82639",
            "definition": "A trial design in which subjects are randomised to one of two or more arms, with each arm being allocated a different intervention for the duration of the study.",
            "preferredTerm": "Parallel Study",
            "submissionValue": "PARALLEL",
            "synonyms": []
          }
        },
        {
          "codelist": {
            "conceptId": "C132310",
            "name": "Protocol Entity Terminology",
            "submissionValue": "Protocol Entity Terminology"
          },
          "term": {
            "conceptId": "C70817",
            "definition": "The formal plan of an experiment or research activity, including the objective, rationale, design, materials and methods for the conduct of the study, intervention description, and method of data analysis.",
            "preferredTerm": "Study Protocol",
            "submissionValue": "Study Protocol",
            "synonyms": []
          }
        },
        {
          "codelist": {
            "conceptId": "C174222",
            "name": "Study Arm Type Value Set Terminology",
            "submissionValue": "Study Arm Type Value Set Terminology"
          },
          "term": {
            "conceptId": "C174266",
            "definition": "An arm describing the intervention or treatment plan for a group of participants in the study receiving test product(s).",
            "preferredTerm": "Investigational Arm",
            "submissionValue": "Experimental Arm",
            "synonyms": [
              "Investigational Arm"
            ]
          }
        },
        {
          "codelist": {
            "conceptId": "C132309",
            "name": "Study Protocol Attribute Terminology",
            "submissionValue": "Study Protocol Attribute Terminology"
          },
          "term": {
            "conceptId": "C207646",
            "definition": "A word or words formed from the beginning letters or a combination of syllables and letters of a compound term, which identifies a clinical study.",
            "preferredTerm": "Study Acronym",
            "submissionValue": "Study Acronym",
            "synonyms": [
              "Trial Acronym"
            ]
          }
        },
        {
          "codelist": {
            "conceptId": "C99077",
            "name": "Study Type Response",
            "submissionValue": "STYPE"
          },
          "term": {
            "conceptId": "C98388",
            "definition": "Studies in which individuals are assigned by an investigator based on a protocol to receive specific interventions. Subjects may receive diagnostic, therapeutic or other types of interventions. The assignment of the intervention may or may not be random. The individuals are then followed and biomedical and/or health outcomes are assessed.",
            "preferredTerm": "Interventional Study",
            "submissionValue": "INTERVENTIONAL",
            "synonyms": []
          }
        },
        {
          "codelist": {
            "conceptId": "C99077",
            "name": "Study Type Response",
            "submissionValue": "STYPE"
          },
          "term": {
            "conceptId": "C16084",
            "definition": "Study in which the researchers observe the effect of a risk factor (e.g., exposure), diagnostic test, treatment or other covariate within a study population, and where the investigator does not assign specific interventions. (CDISC Glossary)",
            "preferredTerm": "Observational Study",
            "submissionValue": "OBSERVATIONAL",
            "synonyms": []
          }
        },
        {
          "codelist": {
            "conceptId": "C66735",
            "name": "Trial Blinding Schema Response",
            "submissionValue": "TBLIND"
          },
          "term": {
            "conceptId": "C49659",
            "definition": "A study in which subjects and study personnel know which intervention each subject is receiving.",
            "preferredTerm": "Open Label Study",
            "submissionValue": "OPEN LABEL",
            "synonyms": []
          }
        },
        {
          "codelist": {
            "conceptId": "C66736",
            "name": "Trial Intent Type Response",
            "submissionValue": "TINDTP"
          },
          "term": {
            "conceptId": "C49656",
            "definition": "A type of study designed to evaluate intervention(s) for treatment of disease, syndrome or condition.",
            "preferredTerm": "Treatment Study",
            "submissionValue": "TREATMENT",
            "synonyms": [
              "Therapy Trial"
            ]
          }
        },
        {
          "codelist": {
            "conceptId": "C66739",
            "name": "Trial Type Response",
            "submissionValue": "TTYPE"
          },
          "term": {
            "conceptId": "C49656",
            "definition": "A type of study designed to evaluate intervention(s) for treatment of disease, syndrome or condition.",
            "preferredTerm": "Treatment Study",
            "submissionValue": "TREATMENT",
            "synonyms": [
              "Therapy Trial"
            ]
          }
        }
      ]
    }
  ]
}
